"Time (s)","Linear Acceleration x (m/s^2)","Linear Acceleration y (m/s^2)","Linear Acceleration z (m/s^2)","Absolute acceleration (m/s^2)"
3.429583332E-3,-1.535288211E0,6.583760757E0,8.670016311E0,1.099418930E1
1.348058333E-2,1.189016100E0,6.759021690E0,5.573065438E0,8.840655625E0
2.353158333E-2,2.349479077E0,2.034751525E0,-1.232680183E1,1.271260434E1
3.358258333E-2,1.066685332E0,-1.698612639E0,-2.676563900E1,2.684068803E1
4.363358333E-2,2.668468664E0,7.448148215E-1,-8.825739359E0,9.250359418E0
5.368358333E-2,3.692285720E0,2.575231302E0,2.060224335E0,4.950688276E0
6.373458333E-2,3.400301498E0,3.487617969E0,5.050053048E0,7.016307089E0
7.378558333E-2,3.320070097E0,4.930880361E0,5.389807853E0,8.024118349E0
8.383658333E-2,3.332844509E0,6.821492758E0,3.959026927E0,8.562389280E0
9.388758333E-2,4.667052237E0,8.137996870E0,1.088716471E0,9.444240213E0
1.039375833E-1,6.107037849E0,7.420373940E0,-2.078965831E0,9.832596790E0
1.139885833E-1,4.902449445E0,5.064167642E0,-3.336528840E0,7.798219615E0
1.240395833E-1,6.228413182E0,3.957000282E0,2.517898951E-1,7.383385413E0
1.340905833E-1,5.247248057E0,4.303907400E0,3.876763034E0,7.815786762E0
1.441415833E-1,8.000258104E0,5.421102735E0,5.319475204E0,1.103128737E1
1.541915833E-1,1.058074488E1,7.080363028E0,3.290189071E0,1.314948847E1
1.642425833E-1,6.645975716E0,9.561341892E0,3.665648363E-1,1.165000523E1
1.742935833E-1,4.011375587E0,9.814372548E0,7.908452725E-1,1.063195555E1
1.843445833E-1,-8.623477299E-2,8.599633961E0,4.708699615E0,9.804743381E0
1.943955833E-1,-5.294445612E0,6.066334212E0,8.991496228E0,1.206973776E1
2.044455833E-1,-7.878081703E0,3.531373853E0,8.809979943E0,1.233493086E1
2.144965833E-1,-5.410943198E0,3.746550804E0,4.141969348E0,7.776301132E0
2.245475833E-1,-4.909331617E0,2.492472736E0,-3.396448767E-1,5.516277360E0
2.345985833E-1,-4.530994545E0,1.711320392E0,-3.665480329E0,6.074065780E0
2.446495833E-1,-3.571331386E0,1.064762768E0,-4.434494437E0,5.792483796E0
2.546995833E-1,-2.751332189E0,6.309952605E-1,-2.379370043E0,3.691799782E0
2.647505833E-1,-2.508079247E0,7.872118127E-1,-4.830524453E-1,2.672733359E0
2.748015833E-1,-3.018353477E0,6.005540711E-1,4.681829759E-1,3.112927594E0
2.848525833E-1,-3.633350464E0,2.765312004E-1,5.911043859E-1,3.691491499E0
2.949035833E-1,-4.579358035E0,4.300533557E-1,3.943543500E-1,4.616381836E0
3.049535833E-1,-5.064612030E0,2.805096459E-1,1.942692085E-1,5.076093104E0
3.150045833E-1,-4.138651637E0,-3.370019352E-1,-5.756279755E-1,4.192058593E0
3.250555833E-1,-3.355830499E0,-1.026512622E0,-1.468692079E0,3.804258525E0
3.351065833E-1,-2.701051689E0,-1.682701780E0,-2.206390986E0,3.872379977E0
3.451575833E-1,-1.935007089E0,-2.766570910E0,-3.059498287E0,4.556171288E0
3.552075833E-1,-9.648242041E-1,-3.646081606E0,-4.162170893E0,5.616801881E0
3.652585833E-1,-7.884561002E-2,-4.201012192E0,-4.628468215E0,6.251194933E0
3.753095833E-1,5.288613600E-1,-4.231521794E0,-3.806161999E0,5.715972375E0
3.853605833E-1,9.418124869E-1,-4.508841784E0,-2.173508291E0,5.093211490E0
3.954115833E-1,1.798544770E0,-4.849052671E0,-8.283659783E-1,5.237772932E0
4.054615833E-1,3.090944321E0,-4.847161097E0,-1.136699892E0,5.860118953E0
4.155125833E-1,4.479914146E0,-3.896519607E0,-2.748235795E0,6.542575624E0
4.255635833E-1,4.874661722E0,-3.221847984E0,-4.088215309E0,7.131348803E0
4.356145833E-1,4.011542817E0,-3.950081856E0,-4.121399135E0,6.977216729E0
4.456655833E-1,2.917001642E0,-5.005421251E0,-3.608496873E0,6.825275831E0
4.557155833E-1,2.001503380E0,-5.721110507E0,-3.058893101E0,6.789252404E0
4.657665833E-1,1.409634178E0,-4.856879754E0,-3.028822917E0,5.894923046E0
4.758175833E-1,1.400582396E0,-4.029632640E0,-3.445161921E0,5.483494408E0
4.858685833E-1,1.789260269E0,-3.701770488E0,-3.509787687E0,5.405845601E0
4.959195833E-1,2.035822150E0,-3.643785405E0,-3.138382781E0,5.222182531E0
5.059695833E-1,2.179504611E0,-3.312527189E0,-2.113336203E0,4.493246781E0
5.160205833E-1,2.460656281E0,-2.712719223E0,-1.820909493E0,4.090157246E0
5.260715833E-1,2.842512792E0,-2.393842487E0,-3.634960202E0,5.198393646E0
5.361225833E-1,3.247128129E0,-1.879690382E0,-6.434154482E0,7.448182390E0
5.461735833E-1,3.489229169E0,-9.430044419E-1,-8.591610412E0,9.320930589E0
5.562235833E-1,3.448776962E0,2.039514667E-1,-9.493653939E0,1.010272853E1
5.662745833E-1,2.919337312E0,9.504649043E-1,-9.336997676E0,9.828806615E0
5.763255833E-1,2.171226123E0,7.959732807E-1,-8.510920590E0,8.819499171E0
5.863765833E-1,9.825772280E-1,-8.381135792E-1,-8.165084682E0,8.266589396E0
5.964265833E-1,1.274365568E-1,-3.472377786E0,-9.279135969E0,9.908380891E0
6.064775833E-1,-1.002043194E0,-8.111478578E0,-1.195149362E1,1.447889412E1
6.165285833E-1,-3.898248628E0,-2.229835923E1,-9.570505064E0,2.457656880E1
6.265796250E-1,-6.593119810E0,-3.824812511E1,-3.796173200E-1,3.881407493E1
6.366306250E-1,-5.563288309E0,-4.333184409E1,5.861412692E-1,4.369144597E1
6.466806250E-1,-3.615571420E0,-3.700744653E1,-1.510720550E0,3.721432159E1
6.567316250E-1,-1.589242078E0,-2.312807913E1,2.853357916E0,2.335755522E1
6.667826250E-1,-8.681185663E-2,-1.167274164E1,6.549618280E0,1.338498911E1
6.768336250E-1,5.196911716E-1,-3.409065889E0,7.134626943E0,7.924311375E0
6.868846250E-1,-6.785277151E-2,2.178068535E0,6.136653997E0,6.512074079E0
6.969346250E-1,-1.504174300E-1,6.369274946E0,5.339197862E0,8.312479928E0
7.069856250E-1,-2.106237976E-1,9.171487559E0,4.534950187E0,1.023358782E1
7.170366250E-1,-1.025360720E0,1.049391490E1,3.615487804E0,1.114654057E1
7.270876250E-1,-1.778879999E0,1.138451133E1,3.818723572E0,1.213895226E1
7.371386250E-1,-2.464295296E0,1.239542125E1,4.327654697E0,1.335843607E1
7.471886250E-1,-3.823851288E0,1.334186443E1,2.333345439E0,1.407379431E1
7.572396250E-1,-4.757494045E0,1.311106548E1,7.198226523E-1,1.396609939E1
7.672906250E-1,-5.989673122E0,1.197682609E1,3.032360190E-1,1.339449512E1
7.773416250E-1,-6.868613130E0,1.176532178E1,1.554631970E0,1.371194820E1
7.873926250E-1,-7.108228519E0,1.201320162E1,3.962545781E0,1.451019280E1
7.974426250E-1,-5.374614447E0,1.241436505E1,6.030448680E0,1.481111918E1
8.074936250E-1,-2.422290360E0,1.277823144E1,6.647328762E0,1.460608328E1
8.175446250E-1,-1.001665463E0,1.240620351E1,7.612077829E0,1.458975490E1
8.275956250E-1,-2.111122593E-2,1.181746608E1,8.582015131E0,1.460492841E1
8.376466250E-1,8.627547692E-1,1.088575670E1,8.890210174E0,1.408118893E1
8.476966250E-1,1.364920520E0,9.931555427E0,7.929785707E0,1.278203046E1
8.577476250E-1,1.557905680E0,8.790909834E0,6.361220407E0,1.096231230E1
8.677986250E-1,1.805574147E0,7.243901464E0,4.412645731E0,8.672119047E0
8.778496250E-1,2.891280910E0,5.097600852E0,1.896505513E0,6.159689351E0
8.879006250E-1,4.768900501E0,2.517244465E0,-1.146791602E0,5.513081050E0
8.979506250E-1,7.281068705E0,3.655544740E-1,-4.268126534E0,8.447750924E0
9.080016250E-1,9.215417106E0,1.473623475E0,-2.918833575E0,9.778295762E0
9.180526250E-1,8.306322421E0,5.234615148E0,5.813683040E0,1.141030667E1
9.281036250E-1,4.142816024E0,8.543152782E0,1.479226628E1,1.757724454E1
9.381546250E-1,-9.412178251E-1,9.598185782E0,1.433137003E1,1.727423597E1
9.482046250E-1,-5.623947909E0,7.781274616E0,6.990406539E0,1.187614450E1
9.582556250E-1,-6.597343254E0,3.293409133E-1,2.744774536E0,7.153124541E0
9.683066250E-1,-6.019244245E0,-6.736294148E0,2.105504004E0,9.275888488E0
9.783576250E-1,-7.806511198E0,-9.892673782E0,4.458199049E0,1.336720429E1
9.884076250E-1,-1.109943501E1,-9.313630448E0,3.881962379E0,1.500036005E1
9.984586250E-1,-1.431671457E1,-6.692257597E0,2.666517448E-1,1.580587647E1
1.008509625E0,-1.609854829E1,-5.158112517E0,-2.051634483E-1,1.690595971E1
1.018560625E0,-1.369003923E1,-3.974338446E0,2.418857606E0,1.445902529E1
1.028611625E0,-7.610621288E0,-3.831369930E0,3.684304855E0,9.283051987E0
1.038661625E0,-2.116793223E0,-5.446386096E0,4.140911586E0,7.161779375E0
1.048712625E0,1.802544266E0,-7.779278961E0,6.171799856E0,1.009244571E1
1.058763625E0,4.326475022E0,-1.074946512E1,1.002564882E1,1.532263100E1
1.068814625E0,7.169428402E0,-1.803831179E1,1.107886568E1,2.235000359E1
1.078865625E0,1.257967520E1,-2.635456805E1,2.963163071E0,2.935288436E1
1.088915625E0,1.778734930E1,-2.638487534E1,-1.313446603E1,3.442478235E1
1.098966625E0,1.902718706E1,-2.084461278E1,-1.392550660E1,3.147143885E1
1.109017625E0,1.805240826E1,-1.470138534E1,-6.156375486E0,2.408155174E1
1.119068625E0,1.606141496E1,-1.078126228E1,-2.230261366E0,1.947251223E1
1.129119625E0,1.282845551E1,-7.684927704E0,-4.077506719E0,1.550011115E1
1.139169625E0,5.510358728E0,-5.743170297E0,-8.692701754E0,1.178605626E1
1.149220625E0,-3.099500259E0,-4.854712776E0,-1.319158982E1,1.439420648E1
1.159271625E0,-8.064353528E0,-3.392695439E0,-1.782678409E1,1.985795587E1
1.169322625E0,-8.824347721E0,1.452682257E-2,-2.182878337E1,2.354495928E1
1.179373625E0,-7.675130110E0,2.547884459E0,-2.273600461E1,2.413141610E1
1.189423625E0,-3.358683063E0,3.093280576E0,-1.948311551E1,2.001102013E1
1.199474625E0,2.595060965E0,2.462349050E0,-1.222325583E1,1.273599181E1
1.209525625E0,7.212025952E0,2.197871300E0,-5.345589454E0,9.242255309E0
1.219576625E0,9.050439085E0,1.740264110E0,3.229382122E-1,9.221890039E0
1.229626625E0,8.185449364E0,2.567609457E0,5.870613286E0,1.039510943E1
1.239677625E0,8.259674504E0,5.533813664E0,5.306141213E0,1.126944769E1
1.249728625E0,7.981114320E0,9.580903752E0,-2.638854856E0,1.274580156E1
1.259779625E0,6.009349587E0,1.300944204E1,-4.229894222E0,1.494154844E1
1.269830625E0,3.981214479E0,1.402420877E1,-2.753561440E0,1.483612487E1
1.279880625E0,2.250280917E0,1.305602330E1,-2.945788362E0,1.357207345E1
1.289931625E0,5.240053935E-1,1.144450494E1,-4.265233039E0,1.222470808E1
1.299982625E0,-2.076457229E0,8.256250960E0,-7.313355861E0,1.122330292E1
1.310033625E0,-3.271336771E0,3.801093047E0,-8.518428415E0,9.885017718E0
1.320084625E0,-2.247330558E0,-6.529831302E-1,-8.086788125E0,8.418611749E0
1.330134625E0,-1.209856454E0,-9.644762363E0,-7.263134125E0,1.213417945E1
1.340185625E0,-1.532906348E0,-2.345137168E1,-3.623330675E0,2.377909083E1
1.350236625E0,-5.595291290E-1,-3.259746712E1,-5.521958435E-1,3.260694490E1
1.360287625E0,2.507833079E0,-3.944470868E1,-9.341036640E-2,3.952446072E1
1.370338625E0,5.607273404E0,-4.280762016E1,-2.522813938E0,4.324694728E1
1.380388625E0,5.583376418E0,-3.762673683E1,2.492144122E0,3.812028592E1
1.390439625E0,4.935521881E0,-2.586191674E1,6.700492231E0,2.716789852E1
1.400490625E0,4.968039417E0,-1.541020470E1,7.785121499E0,1.796563223E1
1.410541625E0,5.716835023E0,-6.399951779E0,5.450020140E0,1.016584010E1
1.420591625E0,5.343333598E0,-1.032596065E0,8.861040169E-1,5.513859710E0
1.430642625E0,3.256828952E0,1.563096984E0,-1.841953914E0,4.054997069E0
1.440693625E0,5.417433608E-1,2.706993629E0,-3.343663028E-1,2.780845411E0
1.450744625E0,-1.607613591E0,3.478910880E0,3.204496956E0,4.995602377E0
1.460795625E0,-2.930946374E0,4.753746564E0,7.972523591E0,9.733945010E0
1.470845625E0,-4.539759521E0,6.091780125E0,1.072515474E1,1.314336889E1
1.480896625E0,-6.659100376E0,7.780876420E0,1.018276818E1,1.444210593E1
1.490947625E0,-1.003004827E1,1.003219887E1,5.315577450E0,1.514933154E1
1.500998625E0,-1.269827895E1,1.277100662E1,2.956831706E0,1.825069182E1
1.511049625E0,-1.418468795E1,1.616695837E1,3.469177020E0,2.178557101E1
1.521099625E0,-1.235591980E1,1.959838401E1,5.055038384E0,2.371326260E1
1.531150625E0,-8.217793238E0,2.043902184E1,6.752359958E0,2.304083558E1
1.541201625E0,-5.766801819E0,1.765839714E1,7.712924758E0,2.011378137E1
1.551252625E0,-4.767562366E0,1.517508933E1,8.738174965E0,1.814851754E1
1.561302625E0,-4.765717277E0,1.406312199E1,9.922831382E0,1.785906056E1
1.571353625E0,-5.333935953E0,1.392971894E1,9.795687186E0,1.784498333E1
1.581404625E0,-6.280147592E0,1.421630384E1,8.654741045E0,1.778898792E1
1.591455625E0,-6.838136272E0,1.317355233E1,9.559283672E0,1.765453180E1
1.601506625E0,-6.618378028E0,1.053173937E1,1.034774503E1,1.618012018E1
1.611556625E0,-5.381860317E0,8.123916775E0,9.516144669E0,1.362055262E1
1.621607625E0,-3.464221213E0,5.449891502E0,8.997783154E0,1.107529899E1
1.631661958E0,-1.133082366E0,1.414118700E0,8.364616238E0,8.558645463E0
1.641712958E0,1.200337918E0,-6.220562126E0,5.404920566E0,8.327626949E0
1.651763958E0,3.583573994E0,-1.583653923E1,-9.012218760E0,1.857035445E1
1.661813958E0,8.509312021E0,-1.965941959E1,-2.890386987E1,3.597686567E1
1.671864958E0,9.708573028E0,-1.130865541E1,-2.234720921E1,2.686149357E1
1.681915958E0,5.465823995E0,1.957354270E0,7.979690523E0,9.868228236E0
1.691966958E0,-4.636201742E-1,1.078108920E1,2.064486955E1,2.329500949E1
1.702016958E0,-8.417884372E0,1.277847000E1,2.228734541E1,2.703471543E1
1.712067958E0,-1.221702737E1,6.027625644E0,1.629519015E1,2.123961513E1
1.722118958E0,-5.813443889E0,-5.170527910E0,5.337930186E0,9.435252375E0
1.732169958E0,-4.563486938E0,-9.097959992E0,6.026837440E0,1.182882321E1
1.742220958E0,-6.235716940E0,-8.475502251E0,-1.221988330E0,1.059299578E1
1.752270958E0,-8.337741265E0,-2.430260115E0,-2.749883541E0,9.109662624E0
1.762321958E0,-9.515439495E0,6.591566205E-2,-5.656732078E0,1.107007459E1
1.772372958E0,-1.022849926E1,2.086081308E0,-7.401369759E-1,1.046526326E1
1.782423958E0,-1.112893889E1,-1.697663636E0,8.678897063E0,1.421473169E1
1.792474958E0,-1.097865493E1,-1.189142166E1,1.886760719E1,2.485806457E1
1.802524958E0,-6.383654419E0,-2.274529934E1,1.846600054E1,2.998487722E1
1.812575958E0,1.127313065E0,-3.158430837E1,7.742711059E0,3.253903724E1
1.822626958E0,9.843312757E0,-3.505344037E1,-1.221254256E1,3.840287338E1
1.832677958E0,1.416600492E1,-3.064695760E1,-1.855250775E1,3.852411258E1
1.842727958E0,1.442705036E1,-2.095000299E1,-1.120839086E1,2.779695007E1
1.852778958E0,1.352890985E1,-1.300555949E1,-4.230877723E0,1.923736743E1
1.862829958E0,1.278772147E1,-7.634704800E0,-1.043385639E0,1.492994278E1
1.872880958E0,1.051386443E1,-3.377606115E0,-5.183198826E0,1.219898022E1
1.882931958E0,4.044454747E0,8.530385971E-2,-1.414260203E1,1.470979548E1
1.892981958E0,-5.510180973E0,6.694377798E-1,-2.018566900E1,2.093493430E1
1.903032958E0,-9.772845622E0,9.434353817E-1,-2.390467123E1,2.584244355E1
1.913083958E0,-8.586019889E0,1.354879974E0,-2.663108989E1,2.801375352E1
1.923134958E0,-1.272135148E0,1.035904419E-1,-2.367968441E1,2.371405727E1
1.933185958E0,5.527716773E0,-9.911545086E-1,-1.380268701E1,1.490141633E1
1.943235958E0,7.263852164E0,-1.219718660E0,-1.188288707E-1,7.366504067E0
1.953286958E0,7.278740344E0,1.502718635E0,7.703620083E0,1.070439100E1
1.963337958E0,7.445622218E0,6.671690016E0,6.621103415E0,1.199115292E1
1.973388958E0,7.487911620E0,1.127348323E1,-5.137673575E-1,1.354341912E1
1.983438958E0,7.068287943E0,1.332144011E1,-4.433635189E0,1.571873347E1
1.993489958E0,6.580705002E0,1.387327109E1,-3.962176237E0,1.585787405E1
2.003540958E0,6.789407916E0,1.454314682E1,-6.349230691E0,1.726012485E1
2.013591958E0,6.736820397E0,1.526524521E1,-7.558662345E0,1.831791028E1
2.023642958E0,6.001803170E0,1.406713084E1,-4.364262945E0,1.590448372E1
2.033692958E0,4.579773772E0,9.024266363E0,-2.566552865E0,1.044025406E1
2.043743958E0,3.342943528E0,5.213175747E0,-2.284320045E0,6.600802289E0
2.053794958E0,2.596756950E0,2.869653229E0,8.042542537E-1,3.952832050E0
2.063845958E0,1.769854968E0,7.666576803E-2,2.986199931E0,3.472125325E0
2.073895958E0,1.522816831E0,-3.826913767E0,-9.846875612E-1,4.234837621E0
2.083946958E0,8.349223150E-1,-2.043125206E1,-6.811603947E0,2.155298365E1
2.093997958E0,1.135447419E0,-3.527872423E1,-1.031938955E1,3.677454860E1
2.104048958E0,4.410766144E0,-4.280551048E1,-1.286108181E1,4.491296039E1
2.114099958E0,9.400581468E0,-4.636647417E1,-9.603160594E0,4.827464710E1
2.124149958E0,1.089418605E1,-4.299123676E1,-2.040273635E0,4.439698689E1
2.134200958E0,7.861863865E0,-3.592656298E1,6.029511956E0,3.726770513E1
2.144251958E0,3.273036557E0,-2.736855711E1,1.256007650E1,3.029036494E1
2.154302958E0,9.781263274E-1,-1.761621767E1,1.140771659E1,2.101008934E1
2.164352958E0,-8.403632954E-1,-1.024237353E1,6.396294930E0,1.210475175E1
2.174403958E0,-2.270298714E0,-4.714385448E0,2.042646728E0,5.617124892E0
2.184454958E0,-3.148806028E0,1.259841084E-2,1.558000551E0,3.513189980E0
2.194505958E0,-4.615423077E0,2.445135432E0,2.758862525E0,5.906956906E0
2.204556958E0,-4.871145498E0,4.188293914E0,6.819115865E0,9.368575428E0
2.214606958E0,-4.265395884E0,6.219882095E0,9.018650113E0,1.175655499E1
2.224657958E0,-4.306751486E0,7.920017933E0,8.929067261E0,1.268869712E1
2.234708958E0,-6.381083983E0,1.034561080E1,5.737562817E0,1.344133634E1
2.244759958E0,-9.712323432E0,1.298348742E1,4.759400237E0,1.689828579E1
2.254810958E0,-1.224113077E1,1.651149152E1,6.729173993E0,2.162767711E1
2.264860958E0,-1.299789496E1,2.136441388E1,1.030431543E1,2.704740967E1
2.274911958E0,-1.232952780E1,2.450864885E1,1.135983024E1,2.969405441E1
2.284962958E0,-1.206177093E1,2.443065401E1,8.045569932E0,2.840905434E1
2.295013958E0,-1.132798162E1,2.347266023E1,8.221607376E0,2.732917440E1
2.305063958E0,-9.617530126E0,2.127733247E1,1.098418639E1,2.580453668E1
2.315114958E0,-7.567453049E0,1.761684449E1,1.446927427E1,2.402039661E1
2.325165958E0,-6.637858611E0,1.457358509E1,1.548942044E1,2.227942313E1
2.335216958E0,-6.700067723E0,1.275409179E1,1.361795943E1,1.982439366E1
2.345267958E0,-6.353240712E0,1.062007793E1,1.110341463E1,1.662635075E1
2.355317958E0,-5.348655733E0,7.962493277E0,8.560043049E0,1.285627296E1
2.365368958E0,-3.889453247E0,4.503446558E0,6.926033957E0,9.131200569E0
2.375419958E0,-1.377663065E0,-2.926006939E0,3.901875656E0,5.067948871E0
2.385470958E0,8.824457795E-1,-1.568771941E1,-9.863097396E0,1.855165602E1
2.395520958E0,3.377848774E0,-2.716841627E1,-3.208394126E1,4.217715011E1
2.405571958E0,4.558787823E0,-2.430193574E1,-3.468374899E1,4.259494185E1
2.415622958E0,5.036957624E0,-1.205913384E1,-2.282602366E1,2.630249052E1
2.425673958E0,3.811077753E0,9.590883780E-1,2.633629199E0,4.730768110E0
2.435724958E0,-2.183189819E0,9.472606301E0,3.106846467E1,3.255374149E1
2.445774958E0,-6.334964070E0,9.169701819E0,3.899127582E1,4.055286415E1
2.455825958E0,-5.094458558E0,-1.403164526E0,3.209939896E1,3.253142776E1
2.465876958E0,-4.026668102E0,-9.714072334E0,1.554528708E1,1.876787702E1
2.475927958E0,-4.367676550E0,-8.329852202E0,6.339902043E0,1.134272428E1
2.485977958E0,-5.746968648E0,2.355328631E-1,1.815312538E0,6.031457866E0
2.496028958E0,-8.023015468E0,6.883281455E0,-2.200383410E0,1.079768623E1
2.506079958E0,-9.283267027E0,1.056106783E1,-3.996596457E0,1.461807045E1
2.516130958E0,-9.381059369E0,9.378774862E0,-2.443411088E0,1.348836352E1
2.526181958E0,-1.239794724E1,3.383722302E0,3.338261955E0,1.327790139E1
2.536231958E0,-1.738258398E1,-1.141094893E1,1.741752928E1,2.712442272E1
2.546282958E0,-1.997098731E1,-3.233540194E1,2.524926654E1,4.562832468E1
2.556333958E0,-1.179669209E1,-4.510931813E1,9.121261146E0,4.751010346E1
2.566384958E0,4.227807058E0,-4.088600524E1,-2.219494303E1,4.671354486E1
2.576434958E0,1.235078009E1,-3.198934968E1,-2.565097961E1,4.282327658E1
2.586485958E0,1.290672751E1,-2.386458272E1,-1.023968849E1,2.899919212E1
2.596536958E0,1.255398136E1,-1.597866166E1,-1.516523327E0,2.037694578E1
2.606587958E0,1.367592405E1,-7.302080675E0,-4.390057352E0,1.611284843E1
2.616637958E0,1.345555536E1,-5.707525671E-2,-1.519004300E1,2.029267439E1
2.626685625E0,9.555073092E0,4.077944090E0,-1.934702858E1,2.195988536E1
2.636736625E0,1.401384634E0,4.680323077E0,-1.705745306E1,1.774333700E1
2.646787625E0,-3.332041102E0,4.531644171E0,-2.027992144E1,2.104551045E1
2.656838625E0,-6.871641988E-1,1.959426523E0,-1.808636070E1,1.820516384E1
2.666888625E0,5.546614974E0,2.874099451E-1,-9.546846060E0,1.104489981E1
2.676939625E0,8.396377729E0,1.113967087E0,-2.423784909E0,8.809927066E0
2.686990625E0,8.629166493E0,3.006973334E0,3.111541430E0,9.653294416E0
2.697041625E0,8.212117930E0,6.494707078E0,2.942439369E0,1.087557127E1
2.707092625E0,7.784808673E0,1.079353676E1,-3.748484479E0,1.382587493E1
2.717142625E0,6.859845815E0,1.325381355E1,-6.720131859E0,1.636707764E1
2.727193625E0,5.874076592E0,1.387765065E1,-4.737216778E0,1.579668276E1
2.737244625E0,5.177650988E0,1.492170609E1,-5.318677644E0,1.666594475E1
2.747295625E0,3.395229330E0,1.560583968E1,-5.605199397E0,1.692595860E1
2.757345625E0,1.239142526E0,1.354600827E1,-4.189977912E0,1.423326137E1
2.767396625E0,2.071684586E-1,9.015249957E0,-4.531241882E0,1.009206637E1
2.777447625E0,2.912995130E-1,6.048657494E0,-4.845294373E0,7.755513552E0
2.787498625E0,6.205692364E-1,3.598211036E0,-4.863326309E0,6.081461307E0
2.797549625E0,3.778551154E-1,5.983882624E-1,-3.806713976E0,3.871939345E0
2.807599625E0,-4.391615635E-1,-1.373913245E0,-2.989470863E-1,1.473047808E0
2.817650625E0,-3.556286792E-1,-3.271107852E0,2.469471543E0,4.113989310E0
2.827701625E0,-3.691972893E-1,-1.240049312E1,2.654055862E0,1.268670756E1
2.837752625E0,8.356785062E-1,-2.625972387E1,-3.736412902E0,2.653737436E1
2.847802625E0,4.445027611E0,-4.162007405E1,-1.253800092E1,4.369428225E1
2.857853625E0,1.233541361E1,-5.264469511E1,-1.160637341E1,5.530220841E1
2.867904625E0,1.697636738E1,-4.961922878E1,-6.229858614E0,5.281170375E1
2.877955625E0,1.164216538E1,-3.985034173E1,3.228241037E0,4.164146120E1
2.888005625E0,2.554828905E0,-2.936071751E1,7.918164951E0,3.051681864E1
2.898056625E0,-1.103409062E0,-1.779854905E1,7.758488016E0,1.944736477E1
2.908107625E0,-1.800981890E0,-7.277908870E0,6.521218354E0,9.936688689E0
2.918158625E0,-1.749260636E0,-1.831968917E0,3.571113870E0,4.378227627E0
2.928209625E0,-1.472255226E0,2.346066642E0,3.442375723E0,4.418315828E0
2.938259625E0,-2.385340928E0,4.605864049E0,5.734264988E0,7.732116782E0
2.948310625E0,-2.212158971E0,6.043901954E0,9.502272735E0,1.147674106E1
2.958361625E0,-1.147432457E0,7.167097117E0,1.038181793E1,1.266751854E1
2.968412625E0,-1.780842032E0,8.617276765E0,6.689595360E0,1.105348557E1
2.978462625E0,-4.444565096E0,1.057700968E1,3.842141671E0,1.209914647E1
2.988513625E0,-8.395931586E0,1.308405953E1,4.560848674E0,1.620140801E1
2.998564625E0,-1.112685378E1,1.655760617E1,9.157847759E0,2.195056657E1
3.008615625E0,-1.164269865E1,2.051676641E1,1.420500117E1,2.753674262E1
3.018665625E0,-1.338844920E1,2.210457081E1,1.286864576E1,2.886978813E1
3.028716625E0,-1.486456242E1,2.248634955E1,9.195606739E0,2.848070075E1
3.038767625E0,-1.407375223E1,2.384541789E1,9.045325695E0,2.912889241E1
3.048818625E0,-1.140997128E1,2.435779302E1,1.289253749E1,2.982795749E1
3.058869625E0,-8.525652650E0,2.101316462E1,1.778603835E1,2.881983693E1
3.068919625E0,-7.365533490E0,1.578450954E1,1.551912781E1,2.332906241E1
3.078970625E0,-6.372453493E0,1.205548167E1,1.073422260E1,1.735414465E1
3.089021625E0,-4.539124514E0,9.267788277E0,7.896964116E0,1.299452166E1
3.099072625E0,-2.803318906E0,6.530737621E0,5.838290462E0,9.197541317E0
3.109123625E0,-8.503228578E-1,2.288569216E0,3.489492002E0,4.258773585E0
3.119173625E0,1.637844865E0,-6.686783434E0,-2.180300417E0,7.221448498E0
3.129224625E0,4.411954005E0,-1.690872445E1,-2.404159899E1,2.972152053E1
3.139275625E0,5.808933932E0,-2.103781648E1,-3.335661113E1,3.986222450E1
3.149326625E0,3.970598274E0,-1.822295985E1,-1.587116995E1,2.448950697E1
3.159376625E0,3.765161615E0,-9.307292651E0,-1.035406821E1,1.442251251E1
3.169427625E0,2.097604415E0,2.936312656E0,9.843953612E0,1.048452665E1
3.179478625E0,-3.459602789E0,1.226718011E1,2.654113165E1,2.944289776E1
3.189529625E0,-9.469311395E0,1.798699312E1,3.105640537E1,3.711738265E1
3.199579625E0,-9.581024204E0,8.575876724E0,3.259926105E1,3.504359438E1
3.209630625E0,-2.759110740E0,-7.034176456E0,1.916553569E1,2.060121571E1
3.219681625E0,-1.720320427E0,-1.031336575E1,7.715020984E0,1.299409728E1
3.229732625E0,-1.936364666E0,-1.540901304E1,-4.143634050E0,1.607348420E1
3.239782625E0,-4.803297039E0,-5.273992052E0,-9.468265328E0,1.185473336E1
3.249833625E0,-6.390127287E0,5.417385660E0,-1.028742633E1,1.326698664E1
3.259884625E0,-7.187674638E0,9.111225570E0,-3.239369166E0,1.204867672E1
3.269935625E0,-1.425087960E1,6.084167635E0,3.958456239E0,1.599293722E1
3.279986625E0,-2.456623924E1,-1.464273192E1,2.522637820E1,3.813502151E1
3.290036625E0,-2.231230367E1,-3.592467083E1,3.108208167E1,5.248348950E1
3.300087625E0,-5.888170136E0,-4.028744215E1,1.302813442E1,4.274904477E1
3.310138625E0,6.665239368E0,-3.503914510E1,-1.506514297E1,3.871854385E1
3.320189625E0,9.548970353E0,-2.810079690E1,-2.442603704E1,3.843785773E1
3.330239625E0,1.014073606E1,-1.972720519E1,-1.988260079E1,2.978783253E1
3.340290625E0,8.065955665E0,-1.588941209E1,-9.473440114E0,2.018115767E1
3.350341625E0,7.537118863E0,-1.185843986E1,-1.691972248E0,1.415250955E1
3.360392625E0,8.269790772E0,-4.603959026E0,-6.150894306E0,1.128801926E1
3.370442625E0,7.759164539E0,3.431484699E0,-1.648297816E1,1.853829255E1
3.380493625E0,3.744241447E0,8.134903693E0,-2.010783554E1,2.201183891E1
3.390544625E0,4.065437481E-1,7.201282863E0,-1.843676329E1,1.979742390E1
3.400595625E0,3.053421276E0,3.804341176E0,-1.497503504E1,1.574954182E1
3.410646625E0,8.789971941E0,2.376095603E0,-1.079320230E1,1.412100042E1
3.420696625E0,1.079863319E1,2.726902814E0,-4.351046484E0,1.195734432E1
3.430747625E0,9.929844532E0,4.539604570E0,2.157331677E0,1.112941607E1
3.440798625E0,9.022960095E0,6.999677299E0,6.605108356E-1,1.143877466E1
3.450849625E0,9.523107533E0,9.624951997E0,-7.412962010E0,1.543636239E1
3.460899625E0,9.230423985E0,1.072215044E1,-9.857563591E0,1.724345664E1
3.470950625E0,7.505553839E0,1.136407999E1,-7.320268439E0,1.546162936E1
3.481001625E0,5.394991994E0,1.258278475E1,-5.570843496E0,1.478061933E1
3.491052625E0,3.426693490E0,1.298948432E1,-3.056485802E0,1.377719263E1
3.501103625E0,2.511902156E0,1.172015671E1,-9.430743161E-1,1.202335706E1
3.511153625E0,2.596575978E0,9.482134924E0,-1.569980034E0,9.955798654E0
3.521204625E0,3.211129746E0,7.701352533E0,-3.848164595E0,9.188610114E0
3.531255625E0,3.307093664E0,4.650401706E0,-5.127113503E0,7.671401267E0
3.541306625E0,2.491712013E0,6.505372399E-1,-4.440830480E0,5.133498106E0
3.551356625E0,9.009369412E-1,-2.512639198E0,-1.451103508E0,3.038214032E0
3.561407625E0,-3.433578587E-1,-6.016905944E0,2.820157717E0,6.653896701E0
3.571458625E0,1.931832343E-2,-8.693710399E0,4.356427676E0,9.724167614E0
3.581509625E0,1.586824254E0,-1.605155655E1,1.232791865E0,1.617684317E1
3.591559625E0,3.595794382E0,-2.725840960E1,-6.750240927E0,2.831106468E1
3.601610625E0,5.933732225E0,-3.767736670E1,-1.169415064E1,3.989418878E1
3.611661625E0,5.988727042E0,-4.566205776E1,-7.290223106E0,4.662655599E1
3.621712625E0,6.026610568E0,-4.431948559E1,-1.530882919E0,4.475355227E1
3.631763833E0,3.491505490E0,-3.854144952E1,1.137105835E0,3.871597798E1
3.641813833E0,1.475404829E0,-3.133373413E1,6.324352543E0,3.199964295E1
3.651864833E0,2.467786084E0,-1.903224724E1,9.228644092E0,2.129517022E1
3.661915833E0,3.184372010E0,-8.838603233E0,9.288164654E0,1.321102323E1
3.671966833E0,2.185140450E0,-2.227852898E0,6.212526882E0,6.952241191E0
3.682016833E0,9.231598690E-1,1.992954458E0,3.860271547E0,4.441372314E0
3.692067833E0,-5.163826708E-1,5.103514726E0,2.648873183E0,5.773131105E0
3.702118833E0,-1.345163363E0,6.199119217E0,4.344444392E0,7.688481034E0
3.712169833E0,-1.283088152E0,6.386256430E0,8.689202780E0,1.085968836E1
3.722219833E0,-1.509354640E0,7.154377668E0,9.726561987E0,1.216837209E1
3.732270833E0,-3.482843133E0,8.908284502E0,7.441384156E0,1.211866029E1
3.742321833E0,-6.534413765E0,1.030444757E1,8.344647996E0,1.478219717E1
3.752372833E0,-9.788851206E0,1.192456134E1,1.090388775E1,1.889210256E1
3.762422833E0,-1.275166871E1,1.438478668E1,1.372809759E1,2.362176551E1
3.772473833E0,-1.415056126E1,1.717047623E1,1.523281538E1,2.696483455E1
3.782524833E0,-1.381071640E1,1.891857386E1,1.419057258E1,2.738650534E1
3.792575833E0,-1.237635231E1,2.103485545E1,1.248769499E1,2.741499163E1
3.802626833E0,-1.072061262E1,2.224090215E1,1.236666698E1,2.761383196E1
3.812676833E0,-7.644235761E0,2.104250361E1,1.485090333E1,2.686578918E1
3.822727833E0,-4.181923080E0,1.697509386E1,1.686253730E1,2.428965739E1
3.832778833E0,-2.852892477E0,1.434633305E1,1.345119216E1,1.987186046E1
3.842829833E0,-2.441875463E0,1.282215806E1,9.051292779E0,1.588384066E1
3.852879833E0,-1.999476004E0,1.079037926E1,6.236966490E0,1.262259640E1
3.862930833E0,-1.435255361E0,7.815518834E0,4.109220555E0,8.945836247E0
3.872981833E0,4.423880571E-1,2.247855638E0,1.037460948E0,2.514932878E0
3.883032833E0,3.680786585E0,-6.798630145E0,-6.933737664E0,1.038490634E1
3.893082833E0,6.422772877E0,-1.437838281E1,-2.643183082E1,3.076737857E1
3.903133833E0,7.474006941E0,-1.751018894E1,-2.309198310E1,2.992836748E1
3.913184833E0,6.232274099E0,-1.544421328E1,-1.299397148E1,2.112364218E1
3.923235833E0,5.174378302E0,-7.720724359E0,-3.781092354E0,1.003396406E1
3.933285833E0,1.761068649E0,4.882559556E0,1.848492680E1,1.919982473E1
3.943336833E0,-4.480706736E0,1.243464905E1,2.801341377E1,3.097496701E1
3.953387833E0,-6.835701492E0,6.468685799E0,3.129514953E1,3.267961283E1
3.963438833E0,-6.932173826E-1,-1.087586087E1,1.655737111E1,1.982199380E1
3.973489833E0,1.176513876E-1,-9.422182252E0,7.056736768E0,1.177237844E1
3.983539833E0,-3.244923436E0,-1.095305815E1,5.176923010E0,1.254191145E1
3.993590833E0,-5.912477596E0,-1.188796245E0,1.286741492E0,6.166549400E0
4.003641833E0,-6.440936083E0,9.142742062E0,-6.535423579E0,1.295326798E1
4.013692833E0,-1.118226199E1,9.851532773E0,-6.940091833E0,1.643960328E1
4.023742833E0,-1.997391091E1,5.946772100E0,1.197480530E0,2.087474970E1
4.033793833E0,-2.494225029E1,-8.082620230E0,1.833114620E1,3.199180396E1
4.043844833E0,-1.770700739E1,-2.351307618E1,2.144995631E1,3.642119558E1
4.053895833E0,-4.358130678E0,-3.144092763E1,1.645639905E1,3.575385718E1
4.063945833E0,5.430558268E0,-3.462998034E1,2.476055508E0,3.514053716E1
4.073996833E0,1.255796448E1,-3.331123674E1,-1.914573117E1,4.042152876E1
4.084047833E0,1.511012326E1,-2.748971141E1,-2.270449280E1,3.872330115E1
4.094098833E0,1.369871299E1,-1.973678293E1,-1.321653054E1,2.742028478E1
4.104149833E0,1.294840178E1,-1.256688500E1,-1.088729481E0,1.807686475E1
4.114199833E0,1.371513314E1,-5.316450439E0,-8.221933651E-1,1.473246498E1
4.124250833E0,1.306826386E1,8.201310521E-1,-1.017282558E1,1.658127002E1
4.134301833E0,8.413467386E0,4.912193245E0,-1.948972754E1,2.178911553E1
4.144352833E0,5.786167797E-1,5.712860670E0,-1.872816747E1,1.958866588E1
4.154402833E0,-3.077690729E0,4.481203165E0,-1.185437838E1,1.304145885E1
4.164453833E0,-2.996467934E0,4.140992278E0,-7.870139430E0,9.384334381E0
4.174504833E0,-3.947338343E-1,5.488190764E0,-7.227174919E0,9.083397490E0
4.184555833E0,3.483216477E0,6.243699558E0,-7.729816779E0,1.052932328E1
4.194605833E0,6.803351187E0,6.322327067E0,-7.342638717E0,1.183941511E1
4.204656833E0,8.522215657E0,6.979952887E0,-6.975797271E0,1.303877485E1
4.214707833E0,8.404180838E0,8.792842923E0,-7.143335202E0,1.410572862E1
4.224758833E0,7.183003882E0,1.097061383E1,-4.607011565E0,1.389872182E1
4.234808833E0,5.795981179E0,1.248931466E1,-2.600852924E0,1.401216666E1
4.244859833E0,4.814132222E0,1.287863632E1,-2.611100754E0,1.399474864E1
4.254910833E0,4.331525554E0,1.174405779E1,-3.034087165E0,1.287985606E1
4.264961833E0,4.448516352E0,9.143140842E0,-3.814845114E0,1.085998920E1
4.275011833E0,5.057345695E0,6.934995984E0,-5.016836770E0,9.941808989E0
4.285062833E0,5.124948864E0,5.053840290E0,-5.207578792E0,8.883990061E0
4.295113833E0,4.039288148E0,2.423742224E0,-4.074088436E0,6.228047182E0
4.305164833E0,1.534041146E0,4.655307519E-1,-3.981489590E0,4.292116084E0
4.315215833E0,-1.212526293E0,3.577911258E-3,-4.246971892E0,4.416673303E0
4.325265833E0,-1.780504794E0,-1.319712480E0,-9.173649859E-1,2.398623953E0
4.335316833E0,-1.510308175E0,-4.937088350E0,3.971316605E0,6.513618636E0
4.345367833E0,2.459428073E-1,-8.908314323E0,7.021380994E0,1.134541066E1
4.355418833E0,2.955765173E0,-2.161437299E1,1.572322136E0,2.187212529E1
4.365468833E0,6.008380119E0,-4.136238959E1,-1.095295524E1,4.320781333E1
4.375519833E0,1.254028601E1,-5.115808029E1,-1.304529132E1,5.426405419E1
4.385570833E0,1.501980015E1,-4.349884993E1,-5.520570306E0,4.634890547E1
4.395621833E0,8.302450395E0,-3.547095028E1,2.059439346E0,3.648781011E1
4.405671833E0,9.264620841E-2,-2.908628195E1,4.680506680E0,2.946060970E1
4.415722833E0,-2.856097044E0,-1.855348541E1,5.175229071E0,1.947234210E1
4.425773833E0,-2.039868423E0,-7.370617644E0,6.697078042E0,1.016552615E1
4.435824833E0,-5.018182799E-1,-3.581758726E-1,6.883398984E0,6.910954573E0
4.445874833E0,-3.155812454E-1,3.347037456E0,5.093148782E0,6.102656452E0
4.455925833E0,-1.010289376E0,5.470779510E0,3.685816945E0,6.673481822E0
4.465976833E0,-2.004116208E0,5.758533856E0,4.046446017E0,7.317849364E0
4.476027833E0,-1.150719323E0,6.404161189E0,8.503330320E0,1.070719674E1
4.486078833E0,-7.924813235E-1,7.926867362E0,8.657966369E0,1.176535739E1
4.496128833E0,-2.798642887E0,9.201082072E0,5.780804147E0,1.122096297E1
4.506179833E0,-5.888937290E0,1.000564550E1,5.387996385E0,1.279933706E1
4.516230833E0,-8.119115041E0,1.143437288E1,8.413567958E0,1.635399150E1
4.526281833E0,-9.931190561E0,1.330939718E1,1.222338213E1,2.061988531E1
4.536331833E0,-1.127793998E1,1.500386181E1,1.296921904E1,2.281465411E1
4.546382833E0,-1.211667044E1,1.587550858E1,1.080527095E1,2.270681298E1
4.556433833E0,-1.202743258E1,1.731766118E1,8.755411388E0,2.283019386E1
4.566484833E0,-1.210933569E1,2.003859515E1,8.972799756E0,2.507374009E1
4.576534833E0,-1.145219753E1,2.190581693E1,1.237988987E1,2.764560213E1
4.586585833E0,-7.913625172E0,1.923369785E1,1.799902084E1,2.750500587E1
4.596636833E0,-3.559936332E0,1.458787685E1,1.647822671E1,2.229374920E1
4.606687833E0,-1.444716741E0,1.224835675E1,1.101343767E1,1.653497079E1
4.616737833E0,1.460147689E-1,1.020819071E1,6.736061429E0,1.223123058E1
4.626788833E0,8.627540383E-1,7.139977146E0,3.756949493E0,8.114079594E0
4.636839833E0,2.232339467E0,2.848599744E-1,-9.862177044E-2,2.252600931E0
4.646890833E0,4.296516520E0,-1.069238226E1,-1.548381998E1,1.930118582E1
4.656940833E0,7.109905500E0,-1.751423404E1,-3.426902002E1,3.913649043E1
4.666991833E0,6.442059917E0,-1.668020708E1,-2.399106267E1,2.992157303E1
4.677042833E0,4.708861583E0,-1.099386353E1,-1.663712830E1,2.048981335E1
4.687093833E0,1.732211032E0,-1.640712925E0,2.304913061E0,3.317396295E0
4.697144833E0,-5.836553839E0,6.941398101E0,2.571770803E1,2.726992620E1
4.707194833E0,-1.354692512E1,5.619692890E0,3.468347534E1,3.765691955E1
4.717245833E0,-1.073591362E1,-7.309509562E0,2.132872715E1,2.497205184E1
4.727296833E0,-3.217521629E0,-1.281436021E1,1.187339236E1,1.776338141E1
4.737346833E0,-5.371017240E0,-1.007666110E1,1.516010175E1,1.897934694E1
4.747397833E0,-6.186768728E0,-2.372097276E0,9.432737646E0,1.152733674E1
4.757448833E0,-5.671111550E0,7.311808103E0,1.493240006E-1,9.254530869E0
4.767499833E0,-7.275301012E0,9.303331162E0,-3.810298027E0,1.240968761E1
4.777550833E0,-1.026140973E1,2.698764843E0,1.593059871E0,1.072929173E1
4.787600833E0,-1.385119785E1,-1.057501929E1,1.503887026E1,2.301856497E1
4.797651833E0,-1.534276409E1,-2.705745950E1,2.110775620E1,3.759047614E1
4.807702833E0,-1.026357904E1,-3.105265380E1,1.113368566E1,3.454804364E1
4.817753833E0,-1.065914230E0,-2.910227058E1,-5.114545498E0,2.956749739E1
4.827803833E0,5.145073226E0,-2.544216852E1,-2.165839317E1,3.380623777E1
4.837854833E0,8.283752754E0,-2.384071205E1,-2.036592696E1,3.243102051E1
4.847905833E0,1.136767486E1,-2.175668019E1,-6.711943418E0,2.544852351E1
4.857956833E0,1.307473439E1,-1.875577217E1,1.916548306E0,2.294342665E1
4.868006833E0,1.456483649E1,-1.246909382E1,-1.448764037E0,1.922788808E1
4.878057833E0,1.482206018E1,-4.459988882E0,-9.836458651E0,1.833959889E1
4.888108833E0,1.207340806E1,1.964142303E0,-1.821599464E1,2.194191191E1
4.898159833E0,5.032814872E0,5.124771109E0,-2.070779729E1,2.191815168E1
4.908209833E0,3.619426489E-3,6.044912353E0,-1.713080171E1,1.816604925E1
4.918260833E0,-3.797716865E-1,6.211801828E0,-1.382194423E1,1.515839209E1
4.928311833E0,2.669238450E0,4.642994453E0,-9.743558089E0,1.111841516E1
4.938362833E0,6.899851295E0,3.954443294E0,-6.307497359E0,1.015037401E1
4.948412833E0,9.012371957E0,4.072481622E0,-3.312897903E0,1.042992077E1
4.958463833E0,8.645411228E0,5.214318877E0,-1.543986529E0,1.021352785E1
4.968514833E0,8.579681507E0,7.484276406E0,-5.123193530E0,1.248488847E1
4.978565833E0,7.859047261E0,1.018398440E1,-7.459350311E0,1.487010657E1
4.988615833E0,5.630359381E0,1.290960200E1,-5.407681621E0,1.508647709E1
4.998666833E0,3.145649116E0,1.480456063E1,-5.493249775E0,1.610111540E1
5.008717833E0,4.975770020E-1,1.452687402E1,-6.864358696E0,1.607473396E1
5.018768833E0,-1.511216394E0,1.153686288E1,-6.191429543E0,1.318016615E1
5.028819833E0,-2.726867438E0,8.227275667E0,-5.273644727E0,1.014569858E1
5.038869833E0,-2.354606500E0,5.536320366E0,-5.297455759E0,8.016112055E0
5.048920833E0,-7.427510467E-1,3.224873918E0,-5.148398538E0,6.120253133E0
5.058971833E0,3.860969120E-1,7.625008947E-1,-5.174803394E0,5.244908827E0
5.069022833E0,4.387940660E-1,-1.305279797E0,-5.083421354E0,5.266637280E0
5.079072833E0,-3.748882382E-1,-2.128199387E0,-3.139750153E0,3.811535759E0
5.089123833E0,-5.822960671E-1,-4.524162658E0,1.401817328E0,4.772023501E0
5.099174833E0,4.129962236E-1,-1.005345116E1,5.428697684E0,1.143298757E1
5.109225833E0,3.772904498E0,-1.954711095E1,6.640561194E0,2.098621947E1
5.119275833E0,7.652423033E0,-3.944881577E1,-1.702297554E0,4.022022452E1
5.129326833E0,1.693965272E1,-5.544435599E1,-1.348398803E1,5.952181431E1
5.139377833E0,1.897847273E1,-4.894588214E1,-9.921762511E0,5.342586618E1
5.149428833E0,1.221665783E1,-3.700340259E1,2.405620241E0,3.904209959E1
5.159478833E0,5.051997832E0,-2.767896240E1,5.473756328E0,2.866373405E1
5.169529833E0,2.096416554E0,-1.687708283E1,4.829749843E0,1.767929215E1
5.179580833E0,2.094294307E0,-7.549044260E0,5.729082016E0,9.705489098E0
5.189631833E0,1.646175393E0,-2.308408819E0,4.821604671E0,5.593435108E0
5.199681833E0,-2.623265594E-2,2.112155796E0,5.560264714E0,5.947977299E0
5.209732833E0,-1.773525996E0,4.582716676E0,7.426255070E0,8.904827396E0
5.219783833E0,-3.619423858E0,4.777556427E0,1.229798090E1,1.368084825E1
5.229834833E0,-4.912672716E0,6.180217507E0,1.242283182E1,1.471924564E1
5.239884833E0,-6.745870718E0,9.054159669E0,5.951938700E0,1.276362618E1
5.249935833E0,-1.012739505E1,1.193922382E1,1.718183270E0,1.574996348E1
5.259986833E0,-1.322563582E1,1.569652999E1,3.781104341E0,2.087091868E1
5.270037833E0,-1.407389140E1,2.013419479E1,1.012445156E1,2.656999696E1
5.280087833E0,-1.379082886E1,2.229391067E1,1.436408520E1,2.989201159E1
5.290138833E0,-1.329536153E1,2.159874689E1,1.280620686E1,2.841252258E1
5.300189833E0,-1.241403293E1,2.082040998E1,1.001876665E1,2.622924648E1
5.310240833E0,-1.072018227E1,2.056535912E1,1.207140364E1,2.614526896E1
5.320290833E0,-8.179927254E0,1.984817940E1,1.596969670E1,2.675617029E1
5.330341833E0,-6.406764370E0,1.801480131E1,1.832218359E1,2.648173158E1
5.340392833E0,-6.633310647E0,1.509863348E1,1.565030658E1,2.273547095E1
5.350443833E0,-6.907853209E0,1.223892052E1,1.182007511E1,1.836365396E1
5.360493833E0,-6.071391469E0,9.516180337E0,8.153893695E0,1.392499425E1
5.370544833E0,-4.395477721E0,6.601567867E0,5.694287574E0,9.763494952E0
5.380595833E0,-1.831721726E0,2.088546494E0,3.352366608E0,4.353802110E0
5.390646833E0,1.590538406E0,-7.140028601E0,-3.304617076E0,8.026849623E0
5.400696833E0,4.631237456E0,-1.812268712E1,-2.651362167E1,3.244768532E1
5.410747833E0,6.252803673E0,-2.111456235E1,-3.337055557E1,3.998144915E1
5.420798833E0,4.233815072E0,-1.497067769E1,-1.310052879E1,2.033888481E1
5.430849833E0,3.455441034E0,-8.640125345E0,-6.073900509E0,1.111234026E1
5.440899833E0,1.933552448E0,9.320426667E-1,-7.245162123E-1,2.265447493E0
5.450950833E0,-2.626747611E0,7.280888026E0,1.570246375E1,1.750652739E1
5.461001833E0,-6.704903955E0,6.452622328E0,3.303602701E1,3.432158435E1
5.471052833E0,-3.022042193E0,-1.100861138E1,2.807388334E1,3.030619061E1
5.481102833E0,5.480454898E-1,-1.752401643E1,1.085994592E1,2.062352858E1
5.491153833E0,-1.422276297E0,-1.164001478E1,8.076276001E0,1.423864628E1
5.501204833E0,-3.395025555E0,-1.680364063E0,3.214434007E0,4.968139278E0
5.511255833E0,-4.597629415E0,8.333788548E0,5.634550957E-1,9.534553447E0
5.521305833E0,-6.199016306E0,1.337954857E1,-2.337604405E0,1.492998719E1
5.531356833E0,-8.878766003E0,1.272412481E1,-1.176966304E0,1.556024060E1
5.541407833E0,-1.081184556E1,8.728820590E0,2.135108457E0,1.405869842E1
5.551458833E0,-9.455668087E0,5.988911229E-1,1.074395705E1,1.432483656E1
5.561508833E0,-1.088736586E1,-1.884165841E1,2.539436870E1,3.344273895E1
5.571559833E0,-1.392381793E1,-3.834562860E1,2.597309102E1,4.836177619E1
5.581610833E0,-1.079778651E1,-4.267953807E1,5.751568068E0,4.439837495E1
5.591661833E0,-1.825936344E-1,-3.460292176E1,-2.607864496E1,4.333002721E1
5.601712833E0,7.386933129E0,-2.680269398E1,-2.843577453E1,3.976863662E1
5.611762833E0,1.058026541E1,-2.175822385E1,-1.040621602E1,2.633726739E1
5.621813833E0,1.159312245E1,-1.823147105E1,-1.796990873E0,2.167985704E1
5.631868875E0,1.334269357E1,-1.051864745E1,-3.595100025E0,1.736646654E1
5.641919875E0,1.277625976E1,-1.769730569E0,-1.144542880E1,1.724420482E1
5.651969875E0,7.552257305E0,3.984494475E0,-1.871205254E1,2.056826918E1
5.662020875E0,1.255971690E0,4.689392109E0,-2.035998385E1,2.093076219E1
5.672071875E0,3.630790552E-1,3.826932478E0,-1.654727297E1,1.698792163E1
5.682122875E0,3.330098072E0,2.258460733E0,-9.329056572E0,1.015979796E1
5.692172875E0,7.186731482E0,2.342621462E0,-3.921847991E0,8.515742855E0
5.702223875E0,1.046828188E1,4.824280357E0,-5.663289730E0,1.284256427E1
5.712274875E0,1.177123214E1,6.622452368E0,-7.094206896E0,1.525603333E1
5.722325875E0,1.135010983E1,7.903926396E0,-4.901575286E0,1.467387085E1
5.732375875E0,1.019476784E1,9.636712502E0,-1.742355074E0,1.413631212E1
5.742426875E0,8.501735199E0,1.175521077E1,-2.153270201E0,1.466632382E1
5.752477875E0,6.923683376E0,1.390253874E1,-4.025068889E0,1.604428729E1
5.762528875E0,5.515989012E0,1.496467026E1,-7.437484063E0,1.759783112E1
5.772578875E0,2.552364011E0,1.291615088E1,-9.581972623E0,1.628360264E1
5.782629875E0,-2.261615306E-1,9.633180783E0,-6.988868136E0,1.190351204E1
5.792680875E0,-9.590201117E-1,7.686798229E0,-4.534104095E0,8.975783338E0
5.802731875E0,-1.259042940E0,4.782274545E0,-4.199719373E0,6.487910431E0
5.812781875E0,-1.419848094E0,1.514384415E0,-4.139034630E0,4.630435880E0
5.822832875E0,-1.227986623E0,-1.100742440E0,-1.532997711E0,2.251592113E0
5.832883875E0,-7.950681317E-1,-4.665095758E0,4.040980332E0,6.222923253E0
5.842934875E0,-1.060364492E0,-9.803595545E0,4.971197498E0,1.104299158E1
5.852984875E0,-1.095195186E-1,-1.637762537E1,8.839481485E-1,1.640182830E1
5.863035875E0,3.371616227E0,-2.761234858E1,-3.983263636E0,2.810117398E1
5.873086875E0,8.349878331E0,-3.735386599E1,-1.284818986E1,4.037459294E1
5.883137875E0,1.081827516E1,-4.180145000E1,-1.374688937E1,4.531416188E1
5.893187875E0,9.906307150E0,-3.861307557E1,-5.592080584E0,4.025389288E1
5.903238875E0,6.945733227E0,-3.621935646E1,3.369728161E0,3.703295911E1
5.913289875E0,2.238346896E0,-3.235276115E1,1.135926189E1,3.436195835E1
5.923340875E0,2.511130031E0,-1.997399979E1,1.304997260E1,2.399100303E1
5.933390875E0,3.233390973E0,-7.937481812E0,8.904459254E0,1.235911928E1
5.943441875E0,1.762599597E0,-1.867145766E0,3.081942240E0,4.011403572E0
5.953492875E0,2.400156310E-1,2.558383135E0,1.684146042E0,3.072341072E0
5.963543875E0,-2.004202747E0,4.633224925E0,3.793639309E0,6.314689308E0
5.973593875E0,-3.619613307E0,4.837905539E0,8.184530767E0,1.017317425E1
5.983644875E0,-3.558364016E0,5.678303041E0,1.217087998E1,1.389371798E1
5.993695875E0,-3.933058857E0,7.059116001E0,1.035778237E1,1.313711255E1
6.003746875E0,-5.518321466E0,9.568790660E0,6.316088673E0,1.272425254E1
6.013796875E0,-7.926200779E0,1.259060481E1,5.634184045E0,1.590886602E1
6.023847875E0,-1.106652688E1,1.595474303E1,7.477187242E0,2.080697411E1
6.033898875E0,-1.262850296E1,1.924012628E1,1.089102855E1,2.546126566E1
6.043949875E0,-1.224635233E1,2.075807867E1,1.257533773E1,2.718474010E1
6.053999875E0,-1.143754558E1,2.117259012E1,1.120589878E1,2.654558699E1
6.064050875E0,-1.093662631E1,2.058600914E1,1.079976287E1,2.569101877E1
6.074101875E0,-9.655872658E0,1.974512808E1,1.370635179E1,2.590308937E1
6.084152875E0,-6.195854716E0,1.792226912E1,1.914861735E1,2.694932082E1
6.094202875E0,-3.548854689E0,1.603997439E1,1.968967542E1,2.564290284E1
6.104253875E0,-3.480098450E0,1.486498576E1,1.395988823E1,2.068713045E1
6.114304875E0,-3.617209809E0,1.289589847E1,9.020489062E0,1.614799142E1
6.124355875E0,-2.804015894E0,1.009557801E1,6.805811695E0,1.249408954E1
6.134405875E0,-1.517527440E0,5.805588155E0,4.550049744E0,7.530650438E0
6.144456875E0,1.567535021E0,-2.325333000E0,-2.501673329E0,3.758019299E0
6.154507875E0,5.538694335E0,-1.365740475E1,-2.778078815E1,3.144795748E1
6.164558875E0,8.953575280E0,-1.892059816E1,-3.448041791E1,4.033676691E1
6.174608875E0,9.113124161E0,-1.734733930E1,-2.064413982E1,2.846330483E1
6.184659875E0,8.814971126E0,-1.054334025E1,-8.418177903E0,1.611618623E1
6.194710875E0,4.299414400E0,1.026226108E0,1.882100839E1,1.933309238E1
6.204761875E0,-4.558921432E0,8.137091137E0,3.048652638E1,3.188141006E1
6.214811875E0,-1.146511988E1,4.038729739E0,3.374744370E1,3.586990756E1
6.224862875E0,-6.853392828E0,-6.349552873E0,1.379996922E1,1.666508222E1
6.234913875E0,-3.679145272E0,-9.050539073E0,7.891314536E0,1.255871062E1
6.244963875E0,-7.102628641E0,-7.933239073E0,8.043241571E0,1.334456259E1
6.255014875E0,-7.710022200E0,2.110283518E-1,1.417006347E0,7.841994789E0
6.265065875E0,-6.944948530E0,8.115058828E0,-6.008947299E0,1.225536362E1
6.275116875E0,-9.067006586E0,8.739056726E0,-3.309036109E0,1.302042399E1
6.285166875E0,-1.645692063E1,3.269967061E0,3.417511607E0,1.712315119E1
6.295217875E0,-1.876881731E1,-1.300395150E1,1.799849459E1,2.907433689E1
6.305268875E0,-1.355303663E1,-2.723122706E1,2.139527314E1,3.718846921E1
6.315319875E0,-4.352974603E0,-3.002037699E1,1.171744361E1,3.251876239E1
6.325369875E0,4.227153339E0,-2.859447966E1,-2.702172015E0,2.903127324E1
6.335420875E0,9.488808936E0,-2.768089198E1,-1.930481403E1,3.505631356E1
6.345471875E0,1.183431308E1,-2.557930210E1,-1.846030535E1,3.369175768E1
6.355522875E0,1.114966727E1,-2.094847336E1,-8.309513832E0,2.514362020E1
6.365572875E0,9.848356565E0,-1.514360091E1,-6.327926946E-1,1.807537557E1
6.375623875E0,9.120020367E0,-9.189768879E0,-3.234394647E-1,1.295110947E1
6.385674875E0,7.720303359E0,-2.355371316E0,-9.743178020E0,1.265228738E1
6.395725875E0,3.788601933E0,4.440812353E0,-2.187733631E1,2.264270662E1
6.405775875E0,-6.529158872E-1,7.908293096E0,-2.436554643E1,2.562512930E1
6.415826875E0,-6.921916348E-1,6.619794223E0,-1.836987699E1,1.953850520E1
6.425877875E0,4.113552172E0,4.612166178E0,-1.215336640E1,1.363443080E1
6.435928875E0,8.590700001E0,3.702989632E0,-5.660744437E0,1.093417973E1
6.445978875E0,9.856111143E0,4.383535368E0,3.220253448E0,1.125736832E1
6.456029875E0,9.547021476E0,6.990009513E0,3.917708747E0,1.246412026E1
6.466080875E0,9.951198564E0,9.064279445E0,-5.071191902E0,1.438417540E1
6.476131875E0,9.161115768E0,1.017285248E1,-1.120975443E1,1.769382842E1
6.486181875E0,6.793429631E0,1.290510198E1,-1.063150690E1,1.804775006E1
6.496232875E0,3.071038937E0,1.478426846E1,-8.417520676E0,1.728758307E1
6.506283875E0,4.590128607E-1,1.400877563E1,-6.307395033E0,1.537009172E1
6.516334875E0,-7.933338475E-1,1.169323496E1,-3.470389148E0,1.222312249E1
6.526384875E0,-1.585912527E0,8.470986446E0,-2.187473196E0,8.891443578E0
6.536435875E0,-6.441126117E-1,6.042484004E0,-3.331032750E0,6.929810472E0
6.546486875E0,1.323428093E0,3.992266009E0,-4.695802411E0,6.303983668E0
6.556537875E0,2.612883278E0,1.939462375E0,-4.117519215E0,5.248108023E0
6.566587875E0,2.759378250E0,9.369402945E-2,-6.225298078E-1,2.830280950E0
6.576638875E0,2.206715067E0,-1.840626889E0,4.139667299E0,5.039280115E0
6.586689875E0,1.979047440E0,-6.473810298E0,5.681735941E0,8.837928030E0
6.596740875E0,2.809566656E0,-1.263971792E1,3.252159365E0,1.335038105E1
6.606790875E0,4.959497219E0,-2.318176359E1,-4.058042507E0,2.405116389E1
6.616841875E0,8.289340938E0,-3.311088306E1,-1.212123478E1,3.622109997E1
6.626892875E0,9.879014686E0,-3.807523464E1,-1.228874230E1,4.121081911E1
6.636943375E0,8.618412294E0,-3.905407725E1,-6.273819151E0,4.048282089E1
6.646993375E0,5.575887889E0,-3.491108406E1,-7.523985140E-1,3.536156698E1
6.657044375E0,1.093577262E0,-3.189930256E1,3.805936296E0,3.214415291E1
6.667095375E0,-8.549769491E-2,-2.412762089E1,8.310674504E0,2.551894806E1
6.677146375E0,1.567955143E0,-1.200831101E1,9.083003983E0,1.513799782E1
6.687196375E0,2.117580843E0,-4.115951577E0,6.263850818E0,7.788519312E0
6.697247375E0,1.406235192E0,4.782297349E-1,3.117407357E0,3.453176758E0
6.707298375E0,2.987129053E-1,3.873444740E0,2.417167907E0,4.575533219E0
6.717349375E0,-1.309378111E0,5.317687710E0,5.386471431E0,7.681558963E0
6.727399375E0,-2.089892815E0,6.075921891E0,8.139958611E0,1.037031364E1
6.737450375E0,-2.161271823E0,7.337808917E0,8.740561799E0,1.161516062E1
6.747501375E0,-3.031280209E0,9.267033986E0,6.521917681E0,1.173038741E1
6.757552375E0,-5.781479500E0,1.085085701E1,5.014491452E0,1.327824264E1
6.767602375E0,-8.902336714E0,1.261230734E1,6.557109148E0,1.677252443E1
6.777653375E0,-1.188803145E1,1.473102839E1,9.342092355E0,2.110931497E1
6.787704375E0,-1.235905858E1,1.656869132E1,1.325059758E1,2.455292645E1
6.797754375E0,-1.263470919E1,1.697687375E1,1.291648651E1,2.479285668E1
6.807805375E0,-1.270682407E1,1.734836607E1,1.075559651E1,2.404396057E1
6.817856375E0,-1.273791722E1,1.814960770E1,1.098738131E1,2.474642081E1
6.827907375E0,-1.064052916E1,1.870723326E1,1.548465262E1,2.651331560E1
6.837957375E0,-6.033198041E0,1.744993923E1,2.067942660E1,2.772252770E1
6.848008375E0,-3.002493197E0,1.543810879E1,1.813461777E1,2.400446896E1
6.858059375E0,-2.384355379E0,1.394077953E1,1.107058134E1,1.796074207E1
6.868110375E0,-2.221768724E0,1.162618260E1,5.660304726E0,1.312034404E1
6.878160375E0,-2.137773325E0,7.707841773E0,2.806771102E0,8.476960753E0
6.888211375E0,-3.835587819E-1,1.169514467E0,-1.520660816E0,1.956346274E0
6.898262375E0,4.099522363E0,-9.278633108E0,-1.879884042E1,2.136107481E1
6.908313375E0,8.124715505E0,-1.648434875E1,-3.668794297E1,4.103352184E1
6.918363375E0,9.551841921E0,-1.489334709E1,-2.547731029E1,3.101842696E1
6.928414375E0,8.000903052E0,-8.925042037E0,-7.983246800E0,1.440149487E1
6.938465375E0,3.049793664E0,-2.395358670E0,1.622514752E1,1.668215803E1
6.948516375E0,-5.763129183E0,5.152788627E-1,3.436838058E1,3.485204089E1
6.958566375E0,-1.035127441E1,-9.448715748E0,2.738003168E1,3.075862881E1
6.968617375E0,-6.284507861E0,-1.229825572E1,1.378816019E1,1.951551932E1
6.978668375E0,-7.827648883E0,-1.102198045E1,1.116398827E1,1.753256326E1
6.988719375E0,-8.763434937E0,-2.860325750E0,7.827429028E0,1.209329982E1
6.998769375E0,-7.687446100E0,6.537933204E0,1.274435442E0,1.017180337E1
7.008820375E0,-7.293589933E0,1.194977921E1,-3.602975932E0,1.445597153E1
7.018871375E0,-8.870995054E0,8.845085456E0,-9.486663008E-1,1.256304333E1
7.028922375E0,-8.513753566E0,1.231930570E0,5.857746488E0,1.040744189E1
7.038972375E0,-7.607928645E0,-1.216537541E1,1.940190470E1,2.413111774E1
7.049023375E0,-8.674087143E0,-2.716909221E1,2.358603540E1,3.700946399E1
7.059074375E0,-6.874222364E0,-3.217142496E1,1.272060362E1,3.527136620E1
7.069125375E0,4.819596738E-1,-2.960134213E1,-1.061497215E1,3.145074522E1
7.079175375E0,6.723114524E0,-2.565461658E1,-2.932536525E1,3.953905243E1
7.089226375E0,9.553023058E0,-2.462648427E1,-1.796063387E1,3.194226583E1
7.099277375E0,1.073625509E1,-2.123976527E1,-3.206848707E0,2.401413502E1
7.109327375E0,1.116694346E1,-1.510373459E1,-4.526028505E-1,1.878904665E1
7.119378375E0,1.135439700E1,-7.415419595E0,-6.366974652E0,1.498162692E1
7.129429375E0,9.586450421E0,-7.182251930E-1,-1.531451736E1,1.808176764E1
7.139480375E0,5.343635899E0,4.201244327E0,-2.109900408E1,2.216693194E1
7.149530375E0,7.369267814E-1,6.688330023E0,-1.934961539E1,2.048620110E1
7.159581375E0,9.937006786E-1,6.607941917E0,-1.556007235E1,1.693423128E1
7.169632375E0,4.687538249E0,5.377873101E0,-1.018212850E1,1.243262944E1
7.179683375E0,8.135908245E0,5.198647170E0,-3.711696721E0,1.034386910E1
7.189733375E0,9.725501887E0,6.436291639E0,-1.452723187E-1,1.166329032E1
7.199784375E0,9.612306808E0,8.195992479E0,-1.218045772E0,1.269071985E1
7.209835375E0,9.613849304E0,9.795266186E0,-7.962286870E0,1.586730444E1
7.219886375E0,8.676034266E0,1.141973964E1,-1.086759759E1,1.799412964E1
7.229936375E0,5.900619442E0,1.337958365E1,-8.208299698E0,1.676922039E1
7.239987375E0,2.486803275E0,1.360077564E1,-6.223465269E0,1.516234838E1
7.250038375E0,-2.819802207E-1,1.143939213E1,-4.447768786E0,1.227688284E1
7.260089375E0,-1.900599441E0,8.855441460E0,-3.060507809E0,9.560221218E0
7.270139375E0,-2.155419637E0,7.283150899E0,-4.451752202E0,8.803875197E0
7.280190375E0,-2.538162294E-1,5.473411342E0,-5.571074461E0,7.814059448E0
7.290241375E0,1.851677249E0,3.321035473E0,-4.730212106E0,6.069010777E0
7.300292375E0,2.671722055E0,1.107344531E0,-2.531355550E0,3.843445274E0
7.310342375E0,2.393053844E0,-5.701660913E-1,1.262586791E0,2.765125942E0
7.320393375E0,1.854924793E0,-3.833111815E0,5.231157689E0,6.745257812E0
7.330444375E0,2.805354322E0,-7.202837053E0,5.164014112E0,9.296123721E0
7.340494375E0,3.923736057E0,-1.485064020E1,-6.329529083E-1,1.537328359E1
7.350545375E0,5.381659173E0,-2.886857374E1,-9.398051963E0,3.083310212E1
7.360596375E0,8.045321426E0,-3.909380558E1,-1.475915700E1,4.255450090E1
7.370647375E0,8.539149193E0,-4.277084351E1,-1.123909927E1,4.503975439E1
7.380697375E0,7.062727826E0,-4.095422120E1,-4.107750857E0,4.176127363E1
7.390748375E0,3.964381222E0,-3.625304110E1,1.321178523E0,3.649307907E1
7.400799375E0,1.075868823E0,-2.882344727E1,7.566327460E0,2.981942182E1
7.410850375E0,7.944892573E-1,-1.677496589E1,1.081811143E1,1.997654196E1
7.420900375E0,7.845940143E-1,-7.222784829E0,8.211421527E0,1.096410744E1
7.430951375E0,4.156785607E-3,-1.532421906E0,3.514453473E0,3.834021047E0
7.441002375E0,-1.089152235E0,2.512570785E0,2.483851016E0,3.697131376E0
7.451053375E0,-1.718401224E0,4.636386514E0,6.494246902E0,8.162366415E0
7.461103375E0,-2.497629980E0,4.863570723E0,1.044176008E1,1.178655290E1
7.471154375E0,-2.336357048E0,5.064468774E0,1.223622261E1,1.344739945E1
7.481205375E0,-1.962048853E0,6.711681463E0,1.092301048E1,1.296952049E1
7.491256375E0,-3.266441190E0,8.967441952E0,6.360468455E0,1.146909814E1
7.501306375E0,-5.441396082E0,1.090317673E1,6.354967979E0,1.374313182E1
7.511357375E0,-7.946321633E0,1.311968544E1,8.552894243E0,1.756195244E1
7.521408375E0,-1.042904121E1,1.563694453E1,1.019213659E1,2.138126711E1
7.531459375E0,-1.289241820E1,1.819957332E1,1.050921940E1,2.465527548E1
7.541509375E0,-1.356871301E1,2.037118478E1,1.074090246E1,2.672942438E1
7.551560375E0,-1.268099107E1,2.215308633E1,1.309927281E1,2.869072527E1
7.561611375E0,-1.027367485E1,2.252856411E1,1.617116018E1,2.957348504E1
7.571662375E0,-5.785321705E0,2.098709773E1,1.877472884E1,2.874749835E1
7.581712375E0,-2.571785246E0,1.739734937E1,1.857375303E1,2.557862674E1
7.591763375E0,-2.342525568E0,1.443464823E1,1.316959844E1,1.967955332E1
7.601814375E0,-2.509324704E0,1.178397557E1,8.415407492E0,1.469618569E1
7.611864375E0,-2.380100068E0,8.720453809E0,5.448892797E0,1.055469676E1
7.621915375E0,-1.326242358E0,4.985005113E0,1.254352303E0,5.308728140E0
7.631962833E0,1.573211498E0,-3.009308712E0,-6.391323043E0,7.237398951E0
7.642013833E0,5.030917450E0,-1.275162661E1,-2.988205994E1,3.287630785E1
7.652063833E0,7.351650445E0,-1.814030828E1,-3.759920580E1,4.238888800E1
7.662114833E0,5.316843957E0,-1.603214965E1,-1.717950784E1,2.409220085E1
7.672165833E0,3.802073041E0,-1.063354290E1,-7.682160802E0,1.365809608E1
7.682216833E0,9.635166205E-1,1.377948409E0,1.374224200E1,1.384472179E1
7.692266833E0,-6.042348933E0,1.103365384E1,2.762773377E1,3.035692954E1
7.702317833E0,-1.448580903E1,1.457031182E1,2.947389154E1,3.592830266E1
7.712368833E0,-1.498063433E1,3.927084172E0,3.343532869E1,3.684783032E1
7.722419833E0,-3.349435399E0,-1.123605287E1,-2.432321113E0,1.197429695E1
7.732469833E0,-8.762407143E-1,-1.194353673E1,1.781593107E0,1.210743331E1
7.742520833E0,-2.796140572E0,-1.265705140E1,6.351024617E0,1.443450262E1
7.752571833E0,-3.104205514E0,-3.673975748E0,-5.883940845E0,7.599667725E0
7.762621833E0,-3.997317126E0,4.488099371E0,-5.827335119E0,8.371344860E0
7.772672833E0,-8.652894495E0,3.299836977E0,1.951993543E0,9.464237212E0
7.782723833E0,-1.505785500E1,-6.170548552E0,1.545592759E1,2.244326991E1
7.792774833E0,-1.718970539E1,-2.164489312E1,2.592146713E1,3.789340084E1
7.802824833E0,-8.057378969E0,-2.777704359E1,1.738996784E1,3.374754048E1
7.812875833E0,3.371696042E-1,-2.687570699E1,7.168257204E0,2.781728278E1
7.822926833E0,4.579347510E0,-2.582369466E1,-8.027941162E0,2.742774998E1
7.832977833E0,6.471687759E0,-2.378536464E1,-2.145925806E1,3.268219806E1
7.843027833E0,8.333697331E0,-1.826223676E1,-2.118270113E1,2.918332794E1
7.853078833E0,9.218824863E0,-1.515435511E1,-1.058236573E1,2.065496732E1
7.863129833E0,8.876056404E0,-1.400247467E1,-1.906844560E0,1.668801158E1
7.873180833E0,9.509443760E0,-8.895460973E0,-4.373701521E0,1.373637549E1
7.883230833E0,8.701284882E0,-2.182938681E0,-1.219862969E1,1.514213150E1
7.893281833E0,4.399277827E0,3.054071487E0,-1.831531779E1,1.908223948E1
7.903332833E0,3.328515816E-1,7.021888533E0,-2.042631233E1,2.160212823E1
7.913383833E0,6.069874701E-1,7.900902801E0,-1.837044534E1,2.000664791E1
7.923433833E0,5.094620526E0,4.516365981E0,-8.524525892E0,1.090964077E1
7.933484833E0,8.831682469E0,2.917848904E0,-3.925373277E-1,9.309486721E0
7.943535833E0,9.803249974E0,5.097523668E0,1.653394366E0,1.117238428E1
7.953585833E0,1.008572428E1,7.577892668E0,-3.286593618E0,1.303641014E1
7.963636833E0,1.069888437E1,9.680103520E0,-1.237066647E1,1.900536555E1
7.973687833E0,9.043668594E0,1.170963407E1,-1.183913352E1,1.894910431E1
7.983738833E0,5.820986797E0,1.364772176E1,-6.809902407E0,1.632540864E1
7.993788833E0,3.124531312E0,1.437387929E1,-4.923410543E0,1.551164314E1
8.003839833E0,1.339394500E0,1.335198830E1,-3.955751024E0,1.398990834E1
8.013890833E0,1.025587007E-1,1.037899022E1,-2.773608326E0,1.074368928E1
8.023941833E0,-2.722946003E-1,7.841476378E0,-2.971199484E0,8.389929828E0
8.033991833E0,5.886839309E-1,6.113776181E0,-4.672942722E0,7.717590404E0
8.044042833E0,1.592016728E0,4.017529489E0,-5.679429799E0,7.136594657E0
8.054093833E0,1.721014199E0,1.622849096E0,-5.133886918E0,5.652638671E0
8.064143833E0,1.029937628E0,-5.961294830E-1,-2.436609607E0,2.711679969E0
8.074194833E0,5.090577176E-1,-3.609062299E0,3.366550784E0,4.961666516E0
8.084245833E0,6.560312837E-1,-8.460625180E0,7.759052272E0,1.149849763E1
8.094296833E0,2.127534558E0,-1.343061698E1,7.066555413E0,1.532462336E1
8.104346833E0,4.676523557E0,-2.613792403E1,-2.047098505E0,2.663177721E1
8.114397833E0,9.326414216E0,-3.869821805E1,-1.454823975E1,4.238142709E1
8.124448833E0,1.201584339E1,-4.015489746E1,-1.481186497E1,4.445433192E1
8.134499833E0,1.089193721E1,-3.430244270E1,-6.317089716E0,3.654035432E1
8.144549833E0,7.453701900E0,-3.132184324E1,-6.680908737E-1,3.220344517E1
8.154600833E0,2.022104144E0,-3.107064919E1,2.631892869E0,3.124741599E1
8.164651833E0,-2.909872717E-1,-2.440603489E1,6.291398805E0,2.520557303E1
8.174702833E0,7.240433188E-1,-1.285582399E1,1.068425463E1,1.673169885E1
8.184752833E0,1.272329129E0,-5.059302759E0,9.784122562E0,1.108803049E1
8.194803833E0,4.854754584E-1,-7.572243673E-1,4.995862223E0,5.076190945E0
8.204854833E0,-5.685833962E-1,2.644793288E0,3.417643754E0,4.358727733E0
8.214904833E0,-1.882345457E0,4.639101377E0,4.877570127E0,6.989647798E0
8.224955833E0,-2.085415310E0,4.968248162E0,9.538552369E0,1.095520096E1
8.235006833E0,-2.058685640E0,5.606261251E0,1.098600371E1,1.250442439E1
8.245057833E0,-3.068788344E0,7.784596419E0,6.264309824E0,1.045270208E1
8.255107833E0,-5.098534652E0,1.040222705E1,4.217496078E0,1.232836795E1
8.265158833E0,-8.251360348E0,1.267702666E1,7.052541976E0,1.668922709E1
8.275209833E0,-1.178902522E1,1.560133498E1,9.976795335E0,2.195265847E1
8.285260833E0,-1.352587046E1,1.870854187E1,1.234750682E1,2.618052015E1
8.295310833E0,-1.443745606E1,2.026861760E1,1.190480477E1,2.758589084E1
8.305361833E0,-1.455787245E1,2.103071796E1,1.092087274E1,2.781165600E1
8.315412833E0,-1.148387307E1,2.151904934E1,1.276231766E1,2.752863195E1
8.325462833E0,-6.395118470E0,2.021523486E1,1.775934114E1,2.765768353E1
8.335513833E0,-2.605289207E0,1.758752655E1,1.974720267E1,2.657180151E1
8.345564833E0,-2.067159718E0,1.527269924E1,1.523494962E1,2.167099862E1
8.355615833E0,-3.269182657E0,1.284489554E1,9.770465221E0,1.646635623E1
8.365665833E0,-3.802763597E0,1.054473071E1,6.630070120E0,1.302344757E1
8.375716833E0,-3.521226303E0,7.837014368E0,4.317410083E0,9.615500960E0
8.385767833E0,-2.029093467E0,3.984497983E0,2.798208439E-1,4.480150017E0
8.395818833E0,1.685194010E0,-3.755384193E0,-8.302189609E0,9.266560397E0
8.405868833E0,5.384106233E0,-1.220549666E1,-2.845805009E1,3.142965739E1
8.415919833E0,7.152360964E0,-1.435263869E1,-2.953569427E1,3.360820943E1
8.425970833E0,5.535294764E0,-1.330237819E1,-1.558335713E1,2.122342510E1
8.436021833E0,4.154187105E0,-1.059702587E1,-9.661885350E0,1.493004542E1
8.446071833E0,-3.497376095E-1,-3.398083064E0,1.040082723E1,1.094744226E1
8.456122833E0,-5.386697719E0,6.347912729E-2,3.559471011E1,3.600005458E1
8.466173833E0,-4.585489718E0,-1.538888459E1,2.369478426E1,2.862319489E1
8.476223833E0,-2.283170482E0,-1.630806338E1,1.644802116E1,2.327451823E1
8.486274833E0,-5.639168211E0,-1.204050812E1,1.553221271E1,2.044562754E1
8.496325833E0,-6.713381249E0,-7.094695723E-1,9.003452030E0,1.125322102E1
8.506376833E0,-5.409063318E0,9.098368127E0,2.602579607E0,1.090007748E1
8.516426833E0,-5.452818618E0,1.397095584E1,-2.463657072E-1,1.499938446E1
8.526477833E0,-6.982133313E0,1.349544740E1,3.289855488E-1,1.519820771E1
8.536528833E0,-7.709487764E0,8.786341404E0,3.136826545E0,1.210271365E1
8.546579833E0,-4.716958515E0,-1.608589491E0,9.706307817E0,1.091098846E1
8.556629833E0,-5.013319085E0,-2.348032943E1,2.023773027E1,3.140103446E1
8.566680833E0,-8.476716717E0,-3.855483263E1,1.846797105E1,4.358205823E1
8.576731833E0,-8.693716246E0,-3.924933216E1,3.828910006E0,4.038256219E1
8.586781833E0,-2.888638261E0,-3.147008185E1,-1.802943806E1,3.638366281E1
8.596832833E0,3.471182615E0,-2.353747544E1,-2.765409068E1,3.648027673E1
8.606883833E0,8.268846447E0,-1.919126812E1,-1.776251266E1,2.742599952E1
8.616934833E0,1.060914598E1,-1.610705131E1,-4.804135530E0,1.987638796E1
8.626984833E0,1.103595179E1,-1.128047650E1,-2.584757001E0,1.599132111E1
8.637035833E0,1.036567143E1,-4.602110721E0,-9.492404974E0,1.478960173E1
8.647086833E0,7.315790641E0,2.512480738E0,-1.599157231E1,1.776411374E1
8.657137833E0,2.655837509E0,6.433177412E0,-1.588573887E1,1.734346978E1
8.667187833E0,6.817219028E-1,7.458285533E0,-1.334066809E1,1.529915661E1
8.677238833E0,3.095525907E0,6.463453125E0,-1.120671037E1,1.330221276E1
8.687289833E0,7.254165081E0,5.282436601E0,-8.167749842E0,1.213421547E1
8.697339833E0,9.616785191E0,5.556450575E0,-3.946232049E0,1.178683366E1
8.707390833E0,9.622662812E0,6.477346110E0,-2.082362186E0,1.178507041E1
8.717441833E0,1.006259504E1,7.421110690E0,-7.261977546E0,1.445908091E1
8.727492833E0,9.692379164E0,8.741794977E0,-1.125314545E1,1.723352766E1
8.737542833E0,6.917495853E0,1.151305068E1,-9.101672974E0,1.622475071E1
8.747593833E0,3.241047024E0,1.363018479E1,-7.240377932E0,1.577052300E1
8.757644833E0,4.606240609E-1,1.329741039E1,-5.887605879E0,1.454981789E1
8.767695833E0,-1.182426580E0,1.066759241E1,-3.325106889E0,1.123619136E1
8.777745833E0,-1.523270136E0,7.805541730E0,-2.519217315E0,8.342259256E0
8.787796833E0,4.820269167E-2,5.759153661E0,-4.198528880E0,7.127258880E0
8.797847833E0,2.077454910E0,3.834653726E0,-5.418131765E0,6.955324574E0
8.807897833E0,3.083183019E0,1.148767961E0,-3.850766314E0,5.064986334E0
8.817948833E0,2.815247226E0,-2.841940935E0,1.802201034E0,4.387501998E0
8.827999833E0,2.438676451E0,-7.694577949E0,6.761550611E0,1.052958875E1
8.838050833E0,2.996526114E0,-1.049380731E1,5.588690953E0,1.226102064E1
8.848100833E0,4.046929289E0,-1.944273815E1,-7.806524062E-1,1.987478608E1
8.858151833E0,6.614268605E0,-2.816126881E1,-1.108389428E1,3.097835248E1
8.868202833E0,8.483727529E0,-3.321290528E1,-1.464656302E1,3.727723861E1
8.878253833E0,6.275110801E0,-3.428658973E1,-8.788955694E0,3.594708602E1
8.888303833E0,3.607212825E0,-3.257332280E1,-2.082221560E0,3.283852904E1
8.898354833E0,2.354866701E0,-3.192353576E1,9.171872306E-1,3.202340964E1
8.908405833E0,1.323778341E0,-3.172547653E1,4.852086791E0,3.212165931E1
8.918455833E0,1.109866873E0,-2.409635231E1,9.156773626E0,2.580140505E1
8.928506833E0,1.868452034E0,-1.350274122E1,1.157660172E1,1.788387097E1
8.938557833E0,1.264278244E0,-6.059982381E0,6.735247496E0,9.147969435E0
8.948608833E0,-7.100566328E-2,-1.480790407E0,3.354163458E0,3.667178007E0
8.958658833E0,-1.204566916E0,1.788542231E0,4.999271150E0,5.444499683E0
8.968709833E0,-2.649090992E0,3.329893420E0,7.518178563E0,8.638800968E0
8.978760833E0,-3.208910435E0,4.038823294E0,1.058098579E1,1.177142557E1
8.988811833E0,-3.304332609E0,5.203290444E0,1.158042112E1,1.311865080E1
8.998861833E0,-4.476280687E0,7.247887511E0,8.614581199E0,1.211527843E1
9.008912833E0,-6.404264685E0,1.029592233E1,5.092540087E0,1.315121999E1
9.018963833E0,-8.785349132E0,1.341724557E1,5.627906474E0,1.699641637E1
9.029013833E0,-1.129032555E1,1.697645275E1,7.906047766E0,2.186725841E1
9.039064833E0,-1.165628875E1,1.984097330E1,1.212736149E1,2.601165480E1
9.049115833E0,-1.199924666E1,2.166111096E1,1.230066127E1,2.764944694E1
9.059166833E0,-1.250093542E1,2.196879378E1,1.034992254E1,2.731340666E1
9.069216833E0,-1.108990639E1,2.096590742E1,1.137583056E1,2.630522417E1
9.079267833E0,-7.651102147E0,1.942389608E1,1.483434869E1,2.561025193E1
9.089318833E0,-3.106027214E0,1.647188833E1,1.994881466E1,2.605620304E1
9.099369833E0,-3.496842536E-1,1.444485747E1,1.901999849E1,2.388590649E1
9.109419833E0,-5.371062264E-2,1.291557786E1,1.236153312E1,1.787799030E1
9.119470833E0,-1.607234399E-1,1.063605837E1,7.366003021E0,1.293868503E1
9.129521833E0,-5.595202120E-1,7.062580476E0,3.924276047E0,8.098953534E0
9.139571833E0,3.307902919E-1,7.296810579E-1,-1.815235063E0,1.984171111E0
9.149622833E0,5.114927906E0,-1.115304696E1,-2.018106373E1,2.361838854E1
9.159673833E0,9.684861984E0,-1.736273502E1,-3.815981812E1,4.302827952E1
9.169724833E0,9.958169614E0,-1.531890511E1,-2.701350715E1,3.261232228E1
9.179774833E0,7.582846429E0,-8.579601400E0,-1.031696178E1,1.541261888E1
9.189825833E0,2.858931774E0,1.585183672E0,1.655815347E1,1.687775887E1
9.199876833E0,-6.161090680E0,8.965760878E0,3.235644022E1,3.413624364E1
9.209926833E0,-1.313578283E1,3.350279152E0,3.416054715E1,3.675209032E1
9.219977833E0,-8.620081674E0,-1.004285250E1,8.750137784E0,1.586598896E1
9.230028833E0,-3.960703908E0,-1.313268029E1,1.562717792E0,1.380567108E1
9.240079833E0,-7.002140731E0,-7.828637647E0,1.109313288E1,1.527662068E1
9.250129833E0,-7.742760175E0,1.036717182E-1,6.935950250E0,1.039559949E1
9.260180833E0,-8.070408320E0,7.934782737E0,-2.026179507E0,1.149772460E1
9.270231833E0,-1.145755826E1,7.817753640E0,-2.916290621E0,1.417383732E1
9.280282833E0,-1.513902137E1,1.193595055E0,3.867313349E0,1.567069717E1
9.290332833E0,-1.273312719E1,-9.693528142E0,1.693447793E1,2.329964718E1
9.300383833E0,-1.035580250E1,-2.383082791E1,2.548261020E1,3.639387898E1
9.310434833E0,-5.248826805E0,-3.149153645E1,1.802862179E1,3.666467311E1
9.320484833E0,1.917068124E0,-3.191218047E1,1.714721133E0,3.201566306E1
9.330535833E0,8.300312068E0,-2.839968552E1,-1.997129604E1,3.569719854E1
9.340586833E0,1.009401213E1,-2.449945936E1,-2.408094841E1,3.580509274E1
9.350637833E0,1.050755061E1,-1.905032215E1,-1.199814855E1,2.484509937E1
9.360687833E0,1.024761731E1,-1.486985649E1,-2.130547628E0,1.818421089E1
9.370738833E0,9.822557480E0,-1.088776814E1,-1.532049438E0,1.474358525E1
9.380789833E0,9.086892382E0,-4.948210924E0,-8.492066828E0,1.338549975E1
9.390839833E0,6.729892616E0,6.670877838E-1,-1.802396974E1,1.925097260E1
9.400890833E0,3.672896937E0,5.444179357E0,-2.211435437E1,2.306889529E1
9.410941833E0,1.791603540E0,6.767635809E0,-1.704578202E1,1.842740954E1
9.420992833E0,3.826388395E0,6.282095300E0,-1.003697488E1,1.244374679E1
9.431042833E0,6.879759092E0,6.553663968E0,-3.861347143E0,1.025629555E1
9.441093833E0,8.621228313E0,7.539440793E0,1.505211303E0,1.155138114E1
9.451144833E0,8.977252995E0,9.033576300E0,1.722669546E0,1.285162101E1
9.461195833E0,8.978887292E0,9.984134760E0,-4.637227929E0,1.420588775E1
9.471245833E0,8.780360287E0,1.021636745E1,-1.277583408E1,1.856585110E1
9.481296833E0,6.397681890E0,1.162712868E1,-1.469630294E1,1.980155992E1
9.491347833E0,1.484994409E0,1.326547173E1,-1.059126519E1,1.703974316E1
9.501397833E0,-1.233827991E0,1.317841020E1,-5.250424265E0,1.423937435E1
9.511448833E0,-2.309983766E0,1.155617506E1,-1.055057559E0,1.183192095E1
9.521499833E0,-2.817551613E0,9.861988764E0,1.579049358E-1,1.025779476E1
9.531550833E0,-2.015991318E0,8.173545018E0,-1.044627296E0,8.483059904E0
9.541600833E0,4.218707621E-1,6.097515074E0,-3.618101510E0,7.102698329E0
9.551651833E0,2.755063004E0,3.863061254E0,-5.878156779E0,7.554226733E0
9.561702833E0,3.590231341E0,1.359034420E0,-5.946013132E0,7.077556626E0
9.571752833E0,2.856928810E0,-8.291305017E-1,-3.874090272E0,4.884472853E0
9.581803833E0,1.507430614E0,-2.765631847E0,1.744917909E0,3.600806170E0
9.591854833E0,1.146025324E0,-7.099590427E0,6.469510841E0,9.673268775E0
9.601905833E0,2.648250747E0,-1.169081305E1,6.028737785E0,1.341767569E1
9.611955833E0,4.979471308E0,-2.119999017E1,-4.410423789E0,2.221905839E1
9.622006833E0,8.169388232E0,-3.189435348E1,-1.462197197E1,3.602486297E1
9.632057833E0,9.663389254E0,-3.874152720E1,-1.391783740E1,4.228466885E1
9.642108333E0,6.770117952E0,-4.036530367E1,-5.385772104E0,4.128194252E1
9.652158333E0,2.975019762E0,-3.632463441E1,1.468148142E0,3.647581756E1
9.662209333E0,1.673383950E-1,-3.169644861E1,5.360824374E0,3.214702622E1
9.672260333E0,-9.974490362E-1,-2.418649767E1,6.769189414E0,2.513570169E1
9.682310333E0,-8.603604805E-1,-1.428571380E1,9.602455419E0,1.723452897E1
9.692361333E0,-6.103534198E-1,-5.944129159E0,8.283437004E0,1.021374228E1
9.702412333E0,-7.639113893E-1,-1.245834664E0,5.339270368E0,5.535654675E0
9.712463333E0,-1.426052429E0,2.563480153E0,2.875833151E0,4.107976672E0
9.722513333E0,-1.660325802E0,5.897437972E0,2.756647600E0,6.718300559E0
9.732564333E0,-2.230495109E0,7.265917985E0,5.559542583E0,9.416856499E0
9.742615333E0,-2.803163370E0,8.570082718E0,6.704097624E0,1.123605659E1
9.752665333E0,-3.061162990E0,1.055200231E1,6.983785152E0,1.301878361E1
9.762716333E0,-4.025042576E0,1.235814174E1,7.005914524E0,1.476507613E1
9.772767333E0,-5.865350207E0,1.375340434E1,6.540759748E0,1.631992653E1
9.782818333E0,-8.260912360E0,1.520743145E1,6.039983150E0,1.833003112E1
9.792868333E0,-1.057602735E1,1.671772516E1,7.070100580E0,2.100764173E1
9.802919333E0,-1.215227882E1,1.743299750E1,1.035849456E1,2.364076335E1
9.812970333E0,-1.226925470E1,1.789606541E1,1.253468438E1,2.505837346E1
9.823020333E0,-1.086771921E1,1.970257906E1,1.427715114E1,2.664837682E1
9.833071333E0,-7.956701610E0,2.171515092E1,1.655722610E1,2.844290098E1
9.843122333E0,-5.749150829E0,2.017756476E1,1.586359664E1,2.630286207E1
9.853173333E0,-5.049371848E0,1.558313260E1,1.235950999E1,2.052042068E1
9.863223333E0,-4.166262190E0,1.219811163E1,8.728680257E0,1.556732241E1
9.873274333E0,-2.756033642E0,9.882271585E0,6.332034030E0,1.205610501E1
9.883325333E0,-1.055502240E0,7.421439303E0,4.466657047E0,8.725988281E0
9.893376333E0,1.313805038E0,3.246468270E0,2.682800775E0,4.411695808E0
9.903426333E0,4.232164111E0,-6.626910285E0,-2.347329640E0,8.205919170E0
9.913477333E0,6.376989178E0,-1.543564945E1,-1.818092772E1,2.468747451E1
9.923528333E0,7.003782045E0,-1.812380276E1,-2.283229422E1,2.998064123E1
9.933578333E0,5.495953528E0,-1.678197202E1,-1.388239859E1,2.246243711E1
9.943629333E0,4.529500874E0,-8.800264794E0,-1.273152973E1,1.612615539E1
9.953680333E0,2.696521851E0,2.090969580E0,-7.957576354E0,8.658314230E0
9.963731333E0,-2.018213260E0,1.021100439E1,1.235764706E1,1.615701817E1
9.973781333E0,-7.560721734E0,1.312774291E1,2.811911506E1,3.194036285E1
9.983832333E0,-1.011659407E1,8.692634511E-1,3.174210134E1,3.332659736E1
9.993883333E0,-5.320919466E0,-6.632590855E0,1.129007646E1,1.413397580E1
1.000393333E1,-2.908819341E0,-9.219552256E0,9.950618520E0,1.387357858E1
1.001398433E1,-4.706020713E0,-6.813825889E0,8.448790416E0,1.183033870E1
1.002403533E1,-4.696047994E0,2.738890775E0,2.051001376E0,5.810421335E0
1.003408633E1,-4.416758078E0,9.261133561E0,-4.110802811E0,1.105328216E1
1.004413633E1,-7.162597100E0,7.505981855E0,-1.594640958E0,1.049692529E1
1.005418733E1,-1.130781691E1,2.943158576E0,4.752827382E0,1.261420921E1
1.006423833E1,-1.271108435E1,-9.512167978E0,1.384980972E1,2.106822808E1
1.007428833E1,-1.199778368E1,-2.724002361E1,2.397076348E1,3.821731547E1
1.008433933E1,-6.809452756E0,-3.096503678E1,1.732364405E1,3.612908514E1
1.009439033E1,5.065782058E-1,-2.661734426E1,-9.828350902E-2,2.662234581E1
1.010444133E1,5.499523838E0,-2.219603763E1,-1.747112954E1,2.877758184E1
1.011449133E1,6.633551552E0,-1.987123147E1,-1.983187035E1,2.884740765E1
1.012454233E1,7.454605295E0,-1.785807605E1,-9.831991378E0,2.170599168E1
1.013459333E1,9.385203291E0,-1.605053095E1,-1.230250080E0,1.863370870E1
1.014464333E1,1.074630880E1,-1.395795631E1,-2.084838482E0,1.773849623E1
1.015469433E1,1.094722497E1,-9.380673453E0,-8.296063482E0,1.663320289E1
1.016474533E1,8.091698617E0,-4.250355091E0,-1.441925602E1,1.707208391E1
1.017479633E1,1.764722136E0,-3.859232497E-1,-1.795029366E1,1.804095960E1
1.018484633E1,-2.643712723E0,2.755534875E0,-1.769839795E1,1.810567533E1
1.019489733E1,-1.900259864E0,4.525663054E0,-1.486602422E1,1.565539172E1
1.020494833E1,1.901028919E0,5.202177134E0,-1.091159672E1,1.223680926E1
1.021499933E1,5.495802670E0,5.698868283E0,-5.798313634E0,9.813327045E0
1.022504933E1,8.010648022E0,6.838984119E0,-1.801027498E0,1.068577959E1
1.023510033E1,1.026963325E1,8.356662855E0,-2.060883609E0,1.339949336E1
1.024515133E1,1.139697994E1,9.141412405E0,-5.207793385E0,1.551056686E1
1.025520133E1,1.162945471E1,8.848710145E0,-7.683837199E0,1.651015573E1
1.026525233E1,1.088647708E1,8.119533117E0,-6.966967390E0,1.526370977E1
1.027530333E1,9.477834882E0,9.218528409E0,-6.201014299E0,1.460353376E1
1.028535333E1,6.804695461E0,1.181595399E1,-7.468462611E0,1.554665825E1
1.029540433E1,2.367268938E0,1.218654935E1,-8.590889450E0,1.509699734E1
1.030545533E1,-1.455709945E0,9.970765686E0,-6.879526373E0,1.220094844E1
1.031550633E1,-3.400909608E0,7.533062065E0,-4.527358162E0,9.423915437E0
1.032555633E1,-3.995674936E0,5.207277660E0,-4.391385255E0,7.897178185E0
1.033560733E1,-2.761700179E0,2.382867263E0,-3.858590473E0,5.309780100E0
1.034565833E1,-7.518082376E-1,-5.807016045E-1,-4.527868916E-1,1.052352578E0
1.035570833E1,8.685692404E-1,-5.275196579E0,4.461951792E0,6.963556940E0
1.036575933E1,2.391430218E0,-9.806761812E0,5.196869617E0,1.135336820E1
1.037581033E1,4.513795545E0,-1.802009187E1,1.258765197E0,1.861941328E1
1.038586133E1,8.277092190E0,-2.875583709E1,-5.870389338E0,3.049376809E1
1.039591133E1,1.168367243E1,-3.378287081E1,-1.254642091E1,3.788407633E1
1.040596233E1,1.032692193E1,-3.808590932E1,-1.038971635E1,4.080598009E1
1.041601333E1,5.472303295E0,-3.874500279E1,-4.294212717E0,3.936447138E1
1.042606333E1,2.190751145E0,-3.576503248E1,2.213787421E0,3.590038710E1
1.043611433E1,-4.067185798E-1,-3.192806852E1,8.446659690E0,3.302897273E1
1.044616533E1,3.259311095E-1,-2.066419109E1,1.124715088E1,2.352899122E1
1.045621633E1,3.692290105E0,-7.976993203E0,1.125263674E1,1.427890964E1
1.046626633E1,3.899968879E0,-1.743737941E0,5.618781309E0,7.058405108E0
1.047631733E1,2.024135028E0,1.687291260E0,-4.725930190E-1,2.677203498E0
1.048636833E1,6.591186136E-2,4.946623989E0,-1.162628201E0,5.081843917E0
1.049641833E1,-1.678474243E0,6.566958198E0,1.900323745E0,7.039420864E0
1.050646933E1,-2.946708129E0,7.002491564E0,6.443245148E0,9.961595502E0
1.051652033E1,-2.935566259E0,7.499532961E0,1.077899590E1,1.345538169E1
1.052657133E1,-3.905229619E0,8.796329618E0,1.068537613E1,1.438066397E1
1.053662133E1,-6.346036942E0,1.047382738E1,8.062590593E0,1.466214895E1
1.054667233E1,-9.382847448E0,1.192648858E1,7.725522584E0,1.702828985E1
1.055672333E1,-1.199814855E1,1.361407103E1,8.607556354E0,2.008453448E1
1.056677333E1,-1.294917362E1,1.554237634E1,1.081094392E1,2.293737273E1
1.057682433E1,-1.300241485E1,1.683925252E1,1.167603713E1,2.426835513E1
1.058687533E1,-1.238919630E1,1.853138410E1,1.111656618E1,2.490948465E1
1.059692633E1,-1.142599850E1,2.009033365E1,1.102308675E1,2.560631542E1
1.060697633E1,-9.747375151E0,2.095490530E1,1.344603141E1,2.673789706E1
1.061702733E1,-6.623890198E0,1.944639266E1,1.778081211E1,2.716975134E1
1.062707833E1,-2.944043845E0,1.559628767E1,1.798625754E1,2.398785200E1
1.063712908E1,-1.131184652E0,1.342685839E1,1.235696762E1,1.828263530E1
1.064718008E1,-6.781309815E-1,1.203425277E1,6.631584549E0,1.375721683E1
1.065723108E1,-8.630193557E-1,9.432403185E0,3.581806965E0,1.012641957E1
1.066728208E1,-5.404879636E-1,5.523360597E0,2.738772077E0,6.188740745E0
1.067733208E1,1.847642963E0,-2.457567782E0,-1.888863494E0,3.608494038E0
1.068738308E1,5.572465514E0,-1.309012660E1,-1.944668151E1,2.409516981E1
1.069743408E1,7.930389140E0,-1.550804500E1,-2.405440439E1,2.969856734E1
1.070748408E1,7.863418640E0,-1.461508746E1,-1.175595571E1,2.033805863E1
1.071753508E1,8.600566007E0,-1.191185885E1,-1.254616714E1,1.932015597E1
1.072758608E1,5.789921125E0,-3.434355682E0,-2.213475180E0,7.086427729E0
1.073763708E1,-2.036144916E0,4.955392474E0,2.372712871E1,2.432444116E1
1.074768708E1,-7.012719514E0,-1.274423456E0,3.420146129E1,3.493626117E1
1.075773808E1,-4.996339356E0,-1.690159436E1,1.351183715E1,2.220804003E1
1.076778908E1,-3.029768119E0,-1.626281879E1,8.849101324E0,1.876073997E1
1.077783908E1,-6.527502941E0,-8.785311710E0,1.099702922E1,1.551530367E1
1.078789008E1,-7.238795675E0,3.466123604E0,4.404243282E0,9.154863983E0
1.079794108E1,-7.216218991E0,1.201185091E1,-4.877397926E-1,1.402127915E1
1.080799208E1,-9.765248335E0,1.391454190E1,-1.102364896E0,1.703495700E1
1.081804208E1,-1.309245145E1,1.017066211E1,2.644388076E0,1.678831263E1
1.082809308E1,-1.010741979E1,3.142925776E0,1.083289203E1,1.514560883E1
1.083814408E1,-8.042950380E0,-1.306329489E1,2.197358382E1,2.679882666E1
1.084819408E1,-8.626227683E0,-3.070810311E1,2.318429426E1,3.943235855E1
1.085824508E1,-6.052711369E0,-3.952163465E1,1.088585844E1,4.143786716E1
1.086829608E1,1.790736106E-1,-3.586504092E1,-1.556400519E1,3.909694982E1
1.087834608E1,5.309658898E0,-2.787233449E1,-3.112952831E1,4.212015006E1
1.088839708E1,8.684749541E0,-2.172567825E1,-2.060814904E1,3.117893162E1
1.089844808E1,1.121696989E1,-1.645574651E1,-5.277478162E0,2.060251884E1
1.090849908E1,1.173106060E1,-1.088365404E1,-1.352202533E0,1.605927022E1
1.091854908E1,1.145906450E1,-4.235216065E0,-5.597030836E0,1.343778139E1
1.092860008E1,9.016257432E0,1.589410039E0,-1.326312934E1,1.611613236E1
1.093865108E1,4.183690108E0,6.576151190E0,-2.076359142E1,2.217827216E1
1.094870108E1,1.345181489E0,9.037631929E0,-1.951578741E1,2.154888077E1
1.095875208E1,2.397947232E0,7.869844730E0,-1.121458189E1,1.390868268E1
1.096880308E1,5.113832138E0,6.139568249E0,-4.205276567E0,9.029392472E0
1.097885408E1,7.383386793E0,6.540433474E0,-6.229951000E-1,9.883308831E0
1.098890408E1,7.957098051E0,7.706361258E0,1.750475103E-1,1.107854029E1
1.099895508E1,8.100235552E0,8.742328827E0,-3.183715952E0,1.233605190E1
1.100900608E1,7.925122553E0,9.614149851E0,-8.755041844E0,1.522794151E1
1.101905608E1,6.348086976E0,1.201878103E1,-1.122393159E1,1.762742029E1
1.102910708E1,2.998379096E0,1.387387920E1,-1.048305662E1,1.764565888E1
1.103915808E1,2.145362426E-1,1.380711686E1,-8.512712177E0,1.622186088E1
1.104920908E1,-1.103021977E0,1.172505668E1,-5.232607799E0,1.288696225E1
1.105925908E1,-1.623684225E0,8.460890644E0,-3.049884588E0,9.139191263E0
1.106931008E1,-8.166145366E-1,6.523337384E0,-3.136405545E0,7.284080565E0
1.107936108E1,8.967593980E-1,5.221601000E0,-4.046273232E0,6.666454941E0
1.108941108E1,2.205297849E0,3.668159523E0,-3.454543194E0,5.500236501E0
1.109946208E1,2.510751132E0,1.410595168E0,-1.700680214E0,3.344542295E0
1.110951308E1,2.014173565E0,-7.319000763E-1,1.082359817E-1,2.145760448E0
1.111956408E1,1.456990778E0,-3.711775074E0,3.052773405E0,5.021904199E0
1.112961408E1,2.167217857E0,-8.833747120E0,5.153972104E0,1.045444163E1
1.113966508E1,3.863115341E0,-1.475111942E1,1.375542279E0,1.531049643E1
1.114971608E1,6.119944993E0,-2.660183744E1,-9.244157925E0,2.881954090E1
1.115976608E1,9.543710783E0,-3.856511437E1,-1.546693322E1,4.263304452E1
1.116981708E1,9.857512136E0,-4.241158123E1,-1.231476124E1,4.525003991E1
1.117986808E1,7.464623330E0,-3.946846709E1,-4.160458828E0,4.038303992E1
1.118991908E1,3.807934874E0,-3.523770251E1,1.550611132E0,3.547675917E1
1.119996908E1,1.889019030E-1,-2.964860400E1,5.149439342E0,3.009305782E1
1.121002008E1,4.320145118E-1,-1.882931611E1,7.985804372E0,2.045734228E1
1.122007108E1,1.544025559E0,-8.549344983E0,1.105282452E1,1.405845811E1
1.123012108E1,1.406052174E0,-1.984195914E0,7.030928328E0,7.439621583E0
1.124017208E1,4.155809122E-1,2.071896547E0,1.685445879E0,2.702996597E0
1.125022308E1,-2.151292965E-1,5.053418121E0,1.134301072E0,5.183623659E0
1.126027408E1,-1.123008929E0,6.355010079E0,3.460149796E0,7.322563675E0
1.127032408E1,-1.351677161E0,5.991396881E0,7.539593405E0,9.724676676E0
1.128037508E1,-1.239408574E0,6.364493678E0,9.185438431E0,1.124345110E1
1.129042608E1,-2.663499116E0,7.458811782E0,7.690872568E0,1.103981982E1
1.130047608E1,-5.780545115E0,8.289842044E0,7.710964186E0,1.271200817E1
1.131052708E1,-9.542348966E0,9.521893067E0,8.099238017E0,1.572642769E1
1.132057808E1,-1.230435905E1,1.160849361E1,9.042128438E0,1.918109648E1
1.133062808E1,-1.335596090E1,1.412201749E1,1.089260964E1,2.228142756E1
1.134067908E1,-1.324102452E1,1.674945449E1,1.093278352E1,2.398738651E1
1.135073008E1,-1.296912666E1,1.898759088E1,1.087425640E1,2.543572893E1
1.136078108E1,-1.240157252E1,2.045332179E1,1.191752597E1,2.672386196E1
1.137083108E1,-1.038691319E1,2.072742522E1,1.376516893E1,2.696282622E1
1.138088208E1,-6.272253851E0,1.935087137E1,1.650352527E1,2.619472729E1
1.139093308E1,-3.086419453E0,1.654285131E1,1.559878092E1,2.294589028E1
1.140098308E1,-1.939339291E0,1.397358592E1,1.055724492E1,1.762037346E1
1.141103408E1,-1.342313576E0,1.147413862E1,6.271991311E0,1.314517166E1
1.142108508E1,-6.677048112E-1,8.699818985E0,3.576659077E0,9.430014328E0
1.143113608E1,9.555936433E-1,3.908611064E0,1.293792065E0,4.226617746E0
1.144118608E1,3.418986568E0,-4.313262361E0,-8.631619985E0,1.023711702E1
1.145123708E1,5.624882879E0,-1.328647961E1,-3.184624960E1,3.496217186E1
1.146128808E1,5.734745629E0,-1.559243786E1,-2.759971859E1,3.221421879E1
1.147133808E1,4.661368743E0,-1.328455821E1,-1.413155313E1,1.994764746E1
1.148138908E1,4.491187871E0,-6.677628449E0,-4.641928798E0,9.290263352E0
1.149144008E1,1.354935814E-1,5.313762474E0,1.634162991E1,1.718439112E1
1.150149008E1,-7.019018719E0,1.025831772E1,2.946209186E1,3.197678162E1
1.151154108E1,-8.489632632E0,-2.942421827E0,3.072246621E1,3.200939922E1
1.152159208E1,-2.407635045E0,-1.519819753E1,1.337995554E1,2.039130022E1
1.153164308E1,-2.176615209E0,-1.875075292E1,1.106739461E1,2.188185578E1
1.154169308E1,-4.840197648E0,-1.331113966E1,6.361111064E0,1.552667660E1
1.155174408E1,-4.454889525E0,1.092395539E0,-9.100299463E-1,4.676272361E0
1.156179508E1,-4.383419885E0,9.460584426E0,-4.080383256E0,1.119672073E1
1.157184508E1,-6.895616741E0,1.094840143E1,-1.077403132E0,1.298375222E1
1.158189608E1,-9.906712947E0,8.111095001E0,5.020950286E0,1.375291843E1
1.159194708E1,-1.033652306E1,-2.306408486E0,1.292854347E1,1.671258404E1
1.160199708E1,-9.497071052E0,-1.943017248E1,2.194782567E1,3.081287090E1
1.161204808E1,-7.716596224E0,-3.074522591E1,1.992420490E1,3.744046894E1
1.162209908E1,-2.828669802E0,-3.306313236E1,2.839576321E0,3.330518410E1
1.163215008E1,2.520456340E0,-2.780381682E1,-2.083187988E1,3.483349178E1
1.164219937E1,5.358863803E0,-2.283421444E1,-2.507052651E1,3.433147346E1
1.165225037E1,8.441781358E0,-1.909890784E1,-1.173238207E1,2.395163339E1
1.166230137E1,1.124419102E1,-1.638024726E1,-7.849835850E-1,1.988367499E1
1.167235137E1,1.256074425E1,-1.214680465E1,-1.607838270E0,1.754714516E1
1.168240238E1,1.254402355E1,-6.237514374E0,-9.062777295E0,1.668511447E1
1.169245337E1,9.861830889E0,-2.494796419E-1,-1.651866488E1,1.924017251E1
1.170250437E1,3.900614997E0,3.671660836E0,-2.023213799E1,2.092929283E1
1.171255438E1,3.650296864E-1,6.141040578E0,-1.558760455E1,1.675765621E1
1.172260537E1,5.847525555E-1,6.692119603E0,-9.020933450E0,1.124738372E1
1.173265637E1,3.391855195E0,7.242563036E0,-5.752967892E0,9.851702419E0
1.174270638E1,7.167322235E0,8.287073388E0,-2.439579700E0,1.122486715E1
1.175275737E1,9.664539986E0,8.854132268E0,-4.222905922E-1,1.311401238E1
1.176280837E1,1.021573479E1,9.262785400E0,-2.834732780E0,1.407821510E1
1.177285837E1,1.051125540E1,9.043523583E0,-9.072555009E0,1.657054807E1
1.178290937E1,9.795090770E0,9.342137378E0,-1.166399889E1,1.786807779E1
1.179296038E1,7.261876974E0,1.161988164E1,-8.648440086E0,1.620345712E1
1.180301137E1,3.494370041E0,1.284946573E1,-6.040563194E0,1.462216794E1
1.181306137E1,7.706560063E-1,1.224577462E1,-4.745872704E0,1.315584336E1
1.182311238E1,-9.025250450E-1,1.027992786E1,-3.626908586E0,1.093827839E1
1.183316337E1,-1.950305159E0,7.791372757E0,-3.203683316E0,8.647124750E0
1.184321337E1,-1.755345541E0,5.613999456E0,-4.062005750E0,7.148294802E0
1.185326438E1,-5.771611154E-1,3.545286718E0,-4.871806526E0,6.052823448E0
1.186331537E1,8.789961416E-1,1.522692724E0,-2.903486388E0,3.394327702E0
1.187336637E1,1.570118905E0,-1.190017728E0,3.258163286E0,3.807498335E0
1.188341637E1,2.031939453E0,-6.242669279E0,7.905957134E0,1.027637367E1
1.189346737E1,3.264405774E0,-1.104392389E1,5.948097664E0,1.296165366E1
1.190351837E1,5.119679353E0,-2.254795348E1,-4.342058144E0,2.352604496E1
1.191356837E1,9.154942278E0,-3.326929349E1,-1.311416450E1,3.691395628E1
1.192361937E1,1.170933235E1,-3.702977821E1,-1.294657044E1,4.093808281E1
1.193367038E1,9.234071478E0,-3.674720333E1,-4.038855454E0,3.810429611E1
1.194372037E1,6.011865059E0,-3.351815801E1,2.103972033E0,3.411797380E1
1.195377137E1,2.048043123E0,-2.975327618E1,3.043247706E0,2.997854701E1
1.196382238E1,-6.840343304E-1,-2.507851381E1,5.172427086E0,2.561549843E1
1.197387337E1,6.911318269E-1,-1.572518135E1,9.719479254E0,1.849938563E1
1.198392337E1,1.515738338E0,-9.183380796E0,1.107609293E1,1.446761142E1
1.199397438E1,4.115855098E-1,-5.616961656E0,4.533718178E0,7.230094148E0
1.200402537E1,-1.237997933E0,-3.063317689E0,8.994824463E-1,3.424269676E0
1.201407537E1,-2.179192077E0,-8.062129247E-1,1.576367825E0,2.807809272E0
1.202412637E1,-3.805691882E0,6.627181596E-1,2.102132207E0,4.397891072E0
1.203417737E1,-4.819733270E0,2.110602776E0,5.119097555E0,7.340955841E0
1.204422738E1,-5.176870970E0,3.500404075E0,9.083008077E0,1.102514660E1
1.205427837E1,-6.445211567E0,5.924694183E0,9.610009437E0,1.299980903E1
1.206432937E1,-7.774386011E0,1.011600935E1,6.172678692E0,1.417309724E1
1.207438038E1,-9.217480003E0,1.419275476E1,4.501080775E0,1.751159483E1
1.208443037E1,-1.102977362E1,1.850324262E1,5.221898623E0,2.216515551E1
1.209448137E1,-1.201430441E1,2.179592670E1,8.720140398E0,2.637132495E1
1.210453238E1,-1.165917493E1,2.383186638E1,1.151479548E1,2.892204575E1
1.211458237E1,-1.157595970E1,2.455755028E1,1.136248487E1,2.943097316E1
1.212463337E1,-1.084124887E1,2.420533974E1,1.188294554E1,2.906261419E1
1.213468437E1,-8.757870142E0,2.276812220E1,1.456864653E1,2.841360835E1
1.214473437E1,-6.637854518E0,1.736896348E1,1.752109984E1,2.554859966E1
1.215478538E1,-5.166585717E0,1.303933067E1,1.635556967E1,2.154582120E1
1.216483637E1,-4.220227897E0,1.080086449E1,1.180942966E1,1.655087992E1
1.217488737E1,-3.047464718E0,8.820513117E0,8.163061545E0,1.239855099E1
1.218493738E1,-1.842102288E0,6.502621284E0,5.686059372E0,8.832253143E0
1.219498837E1,-2.256529690E-1,2.158124852E0,3.364582904E0,4.003603409E0
1.220503937E1,2.695603253E0,-7.712641752E0,-4.169376417E0,9.172503443E0
1.221508938E1,5.893148455E0,-1.546520478E1,-2.437657896E1,2.946386532E1
1.222514037E1,7.018232853E0,-1.678312275E1,-2.529505491E1,3.115715977E1
1.223519137E1,6.176134982E0,-1.538274033E1,-1.584245427E1,2.292938510E1
1.224524137E1,6.776328279E0,-8.539822208E0,-1.358483262E1,1.741823371E1
1.225529237E1,3.503363936E0,3.890336176E0,5.170837812E0,7.358385564E0
1.226534337E1,-2.117320057E0,1.461851860E1,2.472285574E1,2.879937025E1
1.227539437E1,-7.701799260E0,1.824655219E1,3.259193098E1,3.813775483E1
1.228544437E1,-9.548211969E0,3.629066209E0,3.505172129E1,3.650974717E1
1.229549538E1,-3.577413660E0,-6.598785177E0,7.110248147E0,1.033912390E1
1.230554637E1,1.393318400E-2,-1.371057231E1,-3.422540505E0,1.413130464E1
1.231559637E1,-2.897878908E0,-1.553938958E1,-7.441676517E0,1.747137316E1
1.232564738E1,-6.140209689E0,-4.133020184E0,-5.216655425E0,9.055248461E0
1.233569837E1,-6.830771704E0,4.888909632E0,-5.046816030E0,9.799552617E0
1.234574837E1,-9.496676365E0,7.813674037E0,4.422529864E-1,1.230593156E1
1.235579938E1,-1.699975976E1,2.484182553E0,9.742213229E0,1.975028388E1
1.236585037E1,-2.069378034E1,-1.374633388E1,2.581373101E1,3.582656764E1
1.237590137E1,-1.453425555E1,-2.731474869E1,2.362573332E1,3.892962053E1
1.238595137E1,-2.837625690E0,-3.063861012E1,1.055738526E1,3.253052310E1
1.239600237E1,3.925792815E0,-2.839607194E1,-8.643099239E0,2.994080686E1
1.240605338E1,5.893561268E0,-2.548814401E1,-2.255876381E1,3.454384712E1
1.241610337E1,6.707831656E0,-2.039144421E1,-1.849838125E1,2.833718602E1
1.242615437E1,8.313101099E0,-1.604987723E1,-8.623256128E0,2.002665113E1
1.243620538E1,9.474218379E0,-1.402600153E1,-1.833656715E0,1.702503538E1
1.244625537E1,9.744239874E0,-9.227520257E0,-4.043455458E0,1.401595066E1
1.245630637E1,9.576769186E0,-3.439386626E0,-1.017202919E1,1.438798340E1
1.246635738E1,7.123694404E0,1.305782658E0,-1.673465986E1,1.823460806E1
1.247640837E1,3.341798351E0,4.715043259E0,-1.781483238E1,1.872878805E1
1.248645837E1,1.600270658E0,5.973572813E0,-1.320967994E1,1.458561217E1
1.249650937E1,3.231396780E0,5.525297779E0,-9.119377173E0,1.114153853E1
1.250656037E1,6.675265004E0,5.639783923E0,-5.266486566E0,1.020304887E1
1.251661038E1,9.321823567E0,6.979348869E0,-1.476277526E0,1.173827503E1
1.252666137E1,1.058821880E1,8.186520574E0,-1.358723348E0,1.345271815E1
1.253671237E1,1.086021256E1,8.628970027E0,-5.052284346E0,1.476241571E1
1.254676238E1,1.098743510E1,8.269624127E0,-1.082840253E1,1.750327726E1
1.255681337E1,1.003816537E1,8.323558259E0,-1.279040651E1,1.826583929E1
1.256686437E1,6.809034680E0,1.048436406E1,-9.086529855E0,1.545476845E1
1.257691538E1,2.913143357E0,1.282097224E1,-5.266879499E0,1.416346544E1
1.258696537E1,7.586110345E-1,1.334245851E1,-3.305354702E0,1.376670111E1
1.259701637E1,-8.650864926E-1,1.187983950E1,-2.573275116E0,1.218608657E1
1.260706738E1,-2.270286727E0,8.699709057E0,-3.078525420E0,9.503497160E0
1.261711737E1,-2.251223927E0,5.660050957E0,-5.267984038E0,8.053312476E0
1.262716837E1,-1.901885828E-1,3.526844600E0,-6.786959102E0,7.650988066E0
1.263721996E1,1.918310950E0,1.850349054E0,-5.593216698E0,6.195787403E0
1.264726996E1,3.049271215E0,-2.638374799E-1,1.247428907E-1,3.063205175E0
1.265732096E1,3.269462154E0,-4.242666003E0,5.698343203E0,7.820531494E0
1.266737196E1,3.892057596E0,-7.378286267E0,6.355315304E0,1.048700401E1
1.267742196E1,4.904709393E0,-1.518615928E1,2.751627181E0,1.619404397E1
1.268747296E1,7.116409358E0,-2.774704971E1,-6.119262038E0,2.929142226E1
1.269752396E1,9.781201878E0,-3.850366481E1,-1.275718146E1,4.172469045E1
1.270757496E1,9.601929755E0,-4.229562392E1,-1.085179958E1,4.470881806E1
1.271762496E1,6.638201843E0,-3.742881560E1,-4.469286540E0,3.827474994E1
1.272767596E1,4.013738739E0,-3.291498731E1,9.180268908E-1,3.317151280E1
1.273772696E1,1.147665614E0,-3.068775012E1,4.506572772E0,3.103811112E1
1.274777696E1,6.558777943E-1,-2.295647972E1,7.473257328E0,2.415118449E1
1.275782796E1,2.187708693E0,-1.289409752E1,1.073414542E1,1.691938823E1
1.276787896E1,2.111504709E0,-5.633296437E0,7.345113258E0,9.494375686E0
1.277792896E1,4.703517812E-1,-1.259331792E0,2.614823092E0,2.940144072E0
1.278797996E1,-8.034629792E-1,2.039538640E0,1.662910709E0,2.751461912E0
1.279803096E1,-2.922462064E0,3.719054857E0,1.422372630E0,4.939159589E0
1.280808196E1,-3.772760071E0,4.310398394E0,5.016910445E0,7.614633497E0
1.281813196E1,-4.083442812E0,4.974515793E0,9.390693242E0,1.138443816E1
1.282818296E1,-5.727681023E0,6.653393494E0,8.572646137E0,1.227046196E1
1.283823396E1,-8.215940255E0,9.751193967E0,6.505770594E0,1.431476542E1
1.284828396E1,-1.030688469E1,1.337731259E1,6.826334252E0,1.821491706E1
1.285833496E1,-1.184382065E1,1.729042251E1,7.993605142E0,2.243061571E1
1.286838596E1,-1.222534328E1,2.086370277E1,1.018267229E1,2.623813878E1
1.287843596E1,-1.212267202E1,2.246256308E1,1.084666222E1,2.773402240E1
1.288848696E1,-1.230232656E1,2.253466626E1,1.065974077E1,2.779907365E1
1.289853796E1,-1.220918743E1,2.192940694E1,1.179800771E1,2.773366424E1
1.290858796E1,-1.054884248E1,1.992730159E1,1.398901789E1,2.653428061E1
1.291863896E1,-7.715781707E0,1.688371124E1,1.610315005E1,2.457446711E1
1.292868996E1,-5.025766053E0,1.473064247E1,1.554300550E1,2.199625359E1
1.293873996E1,-3.331147063E0,1.300942450E1,1.138982645E1,1.760879931E1
1.294879096E1,-2.410285003E0,1.113588071E1,7.037727470E0,1.339204693E1
1.295884196E1,-1.479633389E0,8.471817920E0,4.416808071E0,9.667947423E0
1.296889296E1,-1.991469558E-1,4.755169192E0,2.449330224E0,5.352617313E0
1.297894296E1,2.227965311E0,-1.563984591E0,-3.308728546E0,4.284572536E0
1.298899396E1,5.404476762E0,-1.076882058E1,-1.961908783E1,2.302356343E1
1.299904496E1,7.525902734E0,-1.576663109E1,-2.525698720E1,3.071060518E1
1.300909496E1,8.061562067E0,-1.472439063E1,-1.684288831E1,2.377980969E1
1.301914596E1,8.285244963E0,-9.635955872E0,-1.018042813E1,1.628306011E1
1.302919696E1,5.064165888E0,5.773400402E-1,1.013963444E1,1.134862478E1
1.303924696E1,-1.743128222E0,1.049164501E1,2.525717197E1,2.740506973E1
1.304929796E1,-9.463992768E0,7.770195896E0,2.992483817E1,3.233324980E1
1.305934896E1,-8.720207641E0,-7.468305906E0,1.553721208E1,1.931896927E1
1.306939996E1,-2.133524300E0,-1.550601718E1,2.002620783E0,1.577970167E1
1.307944996E1,-5.334550495E0,-1.715907299E1,6.465642908E0,1.909700901E1
1.308950096E1,-8.724874304E0,-7.369030709E0,1.687477494E0,1.154441967E1
1.309955196E1,-8.849560915E0,4.275995132E0,-4.600059518E0,1.085170080E1
1.310960196E1,-1.245364899E1,8.502587138E0,-5.231659380E0,1.596112844E1
1.311965296E1,-1.577381732E1,7.154945433E0,1.801980740E0,1.741418076E1
1.312970396E1,-1.500767887E1,2.738631159E-1,1.061291626E1,1.838312862E1
1.313975396E1,-1.020415145E1,-1.207321277E1,1.753267382E1,2.360681733E1
1.314980496E1,-4.618279734E0,-2.348237362E1,1.845642630E1,3.022234356E1
1.315985596E1,-9.729549768E-1,-2.975267743E1,1.192700197E1,3.206901669E1
1.316990596E1,4.185712660E0,-3.060406477E1,-6.054186621E0,3.147669212E1
1.317995696E1,8.006542107E0,-2.641734142E1,-2.112472248E1,3.475966835E1
1.319000796E1,9.022146748E0,-2.059394732E1,-1.701696109E1,2.819728290E1
1.320005896E1,9.933217206E0,-1.552120474E1,-7.066472967E0,1.973604927E1
1.321010896E1,1.041641123E1,-1.305065789E1,-7.432869440E-1,1.671447785E1
1.322015996E1,1.009942431E1,-9.317836935E0,-2.233096097E0,1.392146453E1
1.323021096E1,8.103793582E0,-3.699305887E0,-9.747276918E0,1.320476209E1
1.324026096E1,4.415339543E0,2.001325917E0,-1.874111203E1,1.935793917E1
1.325031196E1,1.820112517E0,6.449689949E0,-2.056874582E1,2.163295206E1
1.326036296E1,2.642599413E0,8.038038719E0,-1.620655455E1,1.828239066E1
1.327041296E1,5.354285433E0,7.136464139E0,-1.070505318E1,1.393541017E1
1.328046396E1,7.203376751E0,6.615804083E0,-4.704102826E0,1.085292973E1
1.329051496E1,7.766510981E0,7.654901083E0,-1.319868600E-1,1.090566935E1
1.330056496E1,7.778732246E0,8.921590426E0,7.126329160E-1,1.185796343E1
1.331061596E1,7.817681719E0,9.555944327E0,-3.478308617E0,1.282695795E1
1.332066696E1,7.717571540E0,9.690030338E0,-8.857005005E0,1.522839900E1
1.333071796E1,6.309988273E0,1.096265928E1,-1.130900507E1,1.696730521E1
1.334076796E1,3.529934561E0,1.255074317E1,-9.282961802E0,1.600484214E1
1.335081896E1,1.253723727E0,1.267331836E1,-5.840156894E0,1.401043375E1
1.336086996E1,-1.891960180E-1,1.039515192E1,-4.355714023E0,1.127240982E1
1.337091996E1,-7.251538512E-1,8.253359511E0,-4.645624823E0,9.498716825E0
1.338097096E1,-4.555755749E-1,6.732896916E0,-5.167957474E0,8.499837318E0
1.339102196E1,2.001805973E-1,4.562492326E0,-4.815531753E0,6.636697565E0
1.340107196E1,7.669555959E-1,2.183576612E0,-3.208967153E0,3.956475438E0
1.341112296E1,1.097999072E0,-2.890553516E-1,3.054326718E-1,1.175773820E0
1.342117396E1,1.219570579E0,-4.142735333E0,5.045721431E0,6.641454147E0
1.343122396E1,2.118145684E0,-7.501805774E0,5.827407625E0,9.732538756E0
1.344127496E1,3.995576118E0,-1.358900870E1,1.748581190E0,1.427176661E1
1.345132596E1,7.019223956E0,-2.318732312E1,-8.068415004E0,2.553469755E1
1.346137696E1,1.050691794E1,-2.835838079E1,-1.414063853E1,3.338488795E1
1.347142696E1,1.010896229E1,-3.120908787E1,-1.150521073E1,3.476446689E1
1.348147796E1,5.789263898E0,-3.190416043E1,-3.889958446E0,3.265766075E1
1.349152896E1,3.040789829E0,-2.975449474E1,3.507477160E-1,2.991152594E1
1.350157896E1,1.085943137E0,-2.841340776E1,4.075995798E0,2.872481079E1
1.351162996E1,5.697623411E-1,-2.739730903E1,7.178519068E0,2.832787157E1
1.352168096E1,2.132432186E0,-2.009033132E1,1.152039010E1,2.325700040E1
1.353173096E1,2.869987105E0,-1.168665802E1,8.868060336E0,1.494848807E1
1.354178196E1,2.083591709E0,-6.657463156E0,3.438791087E0,7.777432367E0
1.355183296E1,6.451943466E-1,-2.888345023E0,1.461823209E0,3.300869554E0
1.356188396E1,-1.175028683E0,6.018006974E-1,9.479207808E-1,1.625241611E0
1.357193396E1,-3.557236965E0,2.772038641E0,1.326648447E0,4.700864724E0
1.358198496E1,-4.593386383E0,4.323271624E0,3.201454065E0,7.073838006E0
1.359203596E1,-5.294453214E0,5.309759470E0,6.883719411E0,1.017891809E1
1.360208596E1,-6.803306163E0,6.802954161E0,8.983917067E0,1.316343139E1
1.361213696E1,-8.454980278E0,9.670321712E0,7.955078423E0,1.510910607E1
1.362218796E1,-9.652557871E0,1.324531170E1,5.859498314E0,1.740528299E1
1.363223796E1,-1.073842324E1,1.701779958E1,4.974716937E0,2.072841154E1
1.364228908E1,-1.079528624E1,1.967140404E1,5.058905148E0,2.300206215E1
1.365234008E1,-9.596851448E0,2.147648863E1,6.604454053E0,2.443272263E1
1.366239008E1,-8.530594717E0,2.318469187E1,8.006469017E0,2.596929975E1
1.367244108E1,-8.560755240E0,2.366110897E1,8.592748280E0,2.658890616E1
1.368249208E1,-8.948222739E0,2.415900874E1,9.714483978E0,2.753360842E1
1.369254308E1,-7.790008017E0,2.164479021E1,1.495081353E1,2.743552429E1
1.370259308E1,-5.284500083E0,1.550099442E1,1.834207582E1,2.458939842E1
1.371264408E1,-3.829418129E0,1.130851273E1,1.411063764E1,1.848396597E1
1.372269508E1,-2.420434600E0,8.879121514E0,9.593318560E0,1.329394838E1
1.373274508E1,-9.347152828E-1,6.000517952E0,6.812525468E0,9.126358069E0
1.374279608E1,3.279213555E-1,1.049596844E0,4.453358432E0,4.587110994E0
1.375284708E1,3.120845228E0,-9.618520644E0,-7.319431118E0,1.248317613E1
1.376289708E1,6.672546633E0,-1.994164364E1,-2.926924133E1,3.603998498E1
1.377294808E1,8.053852513E0,-1.914123583E1,-2.462441202E1,3.221200268E1
1.378299908E1,9.038048835E0,-1.508443410E1,-2.099302681E1,2.738491653E1
1.379304908E1,8.016476526E0,-3.853561283E0,-1.289978570E1,1.566902363E1
1.380310008E1,1.730018473E0,8.269969112E0,1.633192704E1,1.838796328E1
1.381315108E1,-4.877513116E0,1.306553906E1,3.178316048E1,3.470832372E1
1.382320208E1,-1.043116024E1,3.708065600E0,3.074464587E1,3.267708837E1
1.383325208E1,-6.011301388E0,-3.560223430E0,1.141587463E1,1.338406249E1
1.384330308E1,-5.549784749E0,-4.781526686E0,9.544435253E0,1.203159809E1
1.385335408E1,-8.136994658E0,-2.247856808E0,7.642627777E0,1.138741857E1
1.386340408E1,-9.231952447E0,3.851765603E0,2.253523198E0,1.025394612E1
1.387345508E1,-1.140064146E1,7.963063381E0,-3.965160656E0,1.446054989E1
1.388350608E1,-1.762710869E1,3.121839547E0,-3.181678197E0,1.818196687E1
1.389355608E1,-1.986365582E1,-8.399686668E0,1.007773231E1,2.380504667E1
1.390360708E1,-1.483253722E1,-2.370233184E1,2.307645289E1,3.625365324E1
1.391365808E1,-5.457075391E0,-3.181884019E1,1.683625757E1,3.640985900E1
1.392370908E1,3.818678841E0,-3.053652709E1,6.272600591E-1,3.078076104E1
1.393375908E1,9.233974999E0,-2.772410758E1,-1.610778689E1,3.336694822E1
1.394381008E1,1.037496616E1,-2.552524108E1,-1.993681384E1,3.400962219E1
1.395386108E1,1.006629048E1,-2.162880392E1,-8.745839496E0,2.540915330E1
1.396391108E1,1.125311855E1,-1.673674966E1,6.597832958E-1,2.017886965E1
1.397396208E1,1.173334686E1,-1.169630943E1,-8.399841034E-1,1.658857005E1
1.398401308E1,1.082024567E1,-5.882869635E0,-7.539758881E0,1.444070066E1
1.399406308E1,6.726715239E0,-9.319806862E-1,-1.620530675E1,1.757069301E1
1.400411408E1,-7.981259331E-2,2.116814273E0,-2.024020247E1,2.035075106E1
1.401416508E1,-4.233136210E0,4.187277668E0,-1.846121751E1,1.939766193E1
1.402421608E1,-3.813143282E0,5.061076219E0,-1.451615608E1,1.583898170E1
1.403426608E1,3.066934776E-1,4.464028139E0,-1.022750991E1,1.116349260E1
1.404431708E1,4.980027963E0,4.861572729E0,-6.115354344E0,9.264616920E0
1.405436808E1,8.165092868E0,5.690000980E0,-2.761728830E0,1.032821373E1
1.406441808E1,9.401546259E0,6.793278188E0,-2.222298336E0,1.181000891E1
1.407446908E1,9.463120948E0,7.909892310E0,-5.112312446E0,1.335113452E1
1.408452008E1,9.211123495E0,9.050336759E0,-7.009495944E0,1.469307404E1
1.409457008E1,8.083635306E0,1.066209486E1,-6.747548869E0,1.498515406E1
1.410462108E1,6.393252039E0,1.290284730E1,-6.736995814E0,1.589793234E1
1.411467208E1,4.370651613E0,1.404976929E1,-6.729633000E0,1.617981993E1
1.412472308E1,2.371286560E0,1.322821561E1,-5.305051292E0,1.444826140E1
1.413477308E1,1.133003283E0,1.025739386E1,-3.888064533E0,1.102791327E1
1.414482408E1,1.290818464E0,7.676035259E0,-4.199410640E0,8.844364269E0
1.415487508E1,2.441034487E0,5.700202618E0,-4.451664786E0,7.633366139E0
1.416492508E1,3.133962871E0,2.919931097E0,-2.173538404E0,4.803331145E0
1.417497608E1,3.271572121E0,-1.102209506E0,2.787054875E0,4.436859793E0
1.418502708E1,3.252442371E0,-6.823225873E0,6.733205064E0,1.012278831E1
1.419507808E1,3.620298309E0,-1.025197700E1,5.696363921E0,1.227428833E1
1.420512808E1,3.974023573E0,-1.777165888E1,-8.157462251E-1,1.822882784E1
1.421517908E1,4.409031567E0,-2.456504641E1,-1.256081442E1,2.794020622E1
1.422523008E1,4.397465482E0,-2.946329638E1,-1.704033709E1,3.431904172E1
1.423528008E1,2.792393968E0,-3.224924672E1,-1.064681842E1,3.407588767E1
1.424533108E1,1.851031717E0,-3.170535743E1,-3.871158478E0,3.199440383E1
1.425538208E1,1.909204203E0,-2.935261795E1,3.522596598E-1,2.941675251E1
1.426543308E1,2.023052562E0,-2.901115693E1,4.229148409E0,2.938750864E1
1.427548308E1,2.961987196E0,-2.381748457E1,8.537321938E0,2.547413993E1
1.428553408E1,3.932695745E0,-1.396927886E1,9.977295856E0,1.761116919E1
1.429558508E1,3.668796577E0,-6.636212035E0,5.074372787E0,9.124069141E0
1.430563508E1,1.763845054E0,-2.018509714E0,1.043720977E0,2.876609865E0
1.431568608E1,1.237633359E-1,1.073211994E0,1.098269652E0,1.540551063E0
1.432573708E1,-1.508676363E0,2.518327954E0,2.335079139E0,3.751089793E0
1.433578708E1,-2.914882319E0,2.920822797E0,5.001394858E0,6.483956761E0
1.434583808E1,-3.070375570E0,3.295053370E0,8.958754744E0,1.002715660E1
1.435588908E1,-3.456996101E0,4.852176839E0,9.542851242E0,1.124990897E1
1.436594008E1,-5.278267536E0,7.506026294E0,6.676742595E0,1.134810251E1
1.437599008E1,-7.242610399E0,1.102396851E1,5.345790013E0,1.423238413E1
1.438604108E1,-8.775631644E0,1.459730841E1,6.368534104E0,1.818382111E1
1.439609208E1,-1.039592726E1,1.753973609E1,9.418496168E0,2.245942376E1
1.440614208E1,-1.208639824E1,1.942576017E1,1.167196396E1,2.568415705E1
1.441619308E1,-1.367662572E1,2.026098114E1,1.165351717E1,2.708065564E1
1.442624408E1,-1.415350708E1,2.071533786E1,1.171197997E1,2.768785763E1
1.443629408E1,-1.189697418E1,2.100632338E1,1.406099595E1,2.793770254E1
1.444634508E1,-6.977635635E0,1.953174680E1,1.811468111E1,2.753757803E1
1.445639608E1,-3.441961740E0,1.719900246E1,1.749603868E1,2.477426398E1
1.446644708E1,-2.663342995E0,1.506400627E1,1.221091352E1,1.957355588E1
1.447649708E1,-2.724776766E0,1.321712227E1,6.835155362E0,1.512732886E1
1.448654808E1,-3.072269191E0,1.030416106E1,3.934009322E0,1.144949791E1
1.449659908E1,-2.922623740E0,6.565205787E0,1.632304044E0,7.369401132E0
1.450664908E1,5.540141813E-2,2.639351285E-1,-4.088230512E0,4.097116033E0
1.451670008E1,4.582486296E0,-9.584520839E0,-2.131843371E1,2.381885464E1
1.452675108E1,7.755881327E0,-1.557563764E1,-3.244935014E1,3.682002862E1
1.453680208E1,7.713107775E0,-1.422697735E1,-2.138120942E1,2.681520152E1
1.454685208E1,6.646200834E0,-8.611002703E0,-5.256549808E0,1.208108724E1
1.455690308E1,3.379570194E0,2.293787271E0,1.702829417E1,1.751130369E1
1.456695408E1,-3.133140460E0,1.233901082E1,2.628159480E1,2.920256808E1
1.457700408E1,-1.120374232E1,1.319842873E1,2.704244385E1,3.210943993E1
1.458705508E1,-1.082451647E1,-1.388023746E0,2.731130351E1,2.941095147E1
1.459710608E1,-1.246421725E0,-1.473052436E1,-1.468058095E0,1.485587795E1
1.460715608E1,-8.881321967E-1,-1.947616551E1,1.993054007E0,1.959801179E1
1.461720708E1,-5.736088734E0,-1.567442284E1,-6.664210550E-1,1.670432167E1
1.462725808E1,-1.054303268E1,-1.756683092E0,-9.793509682E0,1.449669981E1
1.463730908E1,-1.564304668E1,4.549902102E0,-6.453808143E0,1.752307502E1
1.464735925E1,-1.847068766E1,-2.999440366E-1,7.593463218E0,1.997290547E1
1.465741025E1,-1.552235781E1,-1.068038495E1,2.299996897E1,2.973235254E1
1.466746125E1,-6.272882427E0,-1.858372253E1,2.183251390E1,2.934897715E1
1.467751125E1,2.371557578E0,-2.316955226E1,1.634716605E1,2.845491654E1
1.468756225E1,6.293519590E0,-2.645996528E1,5.787039617E0,2.780697717E1
1.469761325E1,8.722141900E0,-2.805446591E1,-1.571052355E1,3.331590261E1
1.470766425E1,9.416781179E0,-2.441551206E1,-2.325305986E1,3.500711056E1
1.471771425E1,9.381390907E0,-1.763358156E1,-1.680301030E1,2.610162541E1
1.472776525E1,7.271067628E0,-1.385844372E1,-8.083442348E0,1.761439545E1
1.473781625E1,5.537972204E0,-9.834787517E0,-3.552470607E0,1.183267633E1
1.474786625E1,5.157313203E0,-4.541388556E0,-6.676557823E0,9.581154098E0
1.475791725E1,3.632367547E0,7.819832325E-1,-1.289642939E1,1.342100901E1
1.476796825E1,7.999172276E-1,5.716851979E0,-1.831955234E1,1.920750536E1
1.477801925E1,-1.576728890E0,8.334573829E0,-1.979286007E1,2.153389200E1
1.478806925E1,6.975637642E-1,6.962163318E0,-1.741582072E1,1.876883387E1
1.479812025E1,7.215089893E0,4.234736009E0,-1.374247706E1,1.608869749E1
1.480817125E1,1.104771054E1,3.026546888E0,-7.688699158E0,1.379594104E1
1.481822125E1,1.129424787E1,2.897022876E0,2.183478963E-1,1.166192318E1
1.482827225E1,9.963199389E0,5.119900378E0,3.193805323E0,1.164813781E1
1.483832325E1,9.564364318E0,8.305941768E0,-2.474075641E0,1.290685026E1
1.484837425E1,8.818238550E0,1.083502626E1,-7.760418767E0,1.598071415E1
1.485842425E1,6.627768656E0,1.307072554E1,-7.946871271E0,1.667105115E1
1.486847525E1,4.089219569E0,1.466511623E1,-7.024054341E0,1.676677340E1
1.487852625E1,2.047929395E0,1.435782166E1,-7.700997022E0,1.642091389E1
1.488857625E1,5.157767531E-1,1.235615836E1,-7.635438040E0,1.453411811E1
1.489862725E1,-4.081637192E-1,8.557079680E0,-4.479155470E0,9.667111461E0
1.490867825E1,8.273459315E-2,5.624075963E0,-1.425405142E0,5.802486990E0
1.491872925E1,1.804953319E0,4.160927190E0,-1.083896758E0,4.663261063E0
1.492877925E1,3.187038048E0,2.477367039E0,-1.280545052E0,4.234897235E0
1.493883025E1,3.487620015E0,7.601169848E-1,-1.361170408E0,3.820216759E0
1.494888125E1,3.180252939E0,-2.004821967E0,1.955178521E0,4.237457129E0
1.495893125E1,3.169600773E0,-6.453671318E0,5.012815640E0,8.764962247E0
1.496898225E1,4.382488132E0,-1.161832395E1,4.527847574E0,1.321715012E1
1.497903325E1,5.625939471E0,-2.301647449E1,-1.211705636E0,2.372504001E1
1.498908325E1,8.368929144E0,-3.484991283E1,-8.370118468E0,3.680508501E1
1.499913425E1,9.665849177E0,-3.860856854E1,-1.113528546E1,4.132849849E1
1.500918525E1,5.628442664E0,-3.753582432E1,-7.142771530E0,3.862171228E1
1.501923625E1,2.408867492E0,-3.606905729E1,-2.365703931E0,3.622673173E1
1.502928625E1,6.522539824E-2,-3.345881345E1,-4.889722395E-1,3.346244978E1
1.503933725E1,-2.512497987E0,-2.829332467E1,2.036049607E0,2.847754141E1
1.504938825E1,-2.706870253E0,-1.698610885E1,5.313605184E0,1.800248428E1
1.505943825E1,-5.654827639E-2,-6.595197911E0,7.925753467E0,1.031103298E1
1.506948925E1,1.076961375E0,-1.951107105E0,7.580883518E0,7.901674484E0
1.507954025E1,1.043516325E0,1.194044706E0,3.466914732E0,3.812370239E0
1.508959125E1,3.799190363E-1,4.060451560E0,1.078427418E0,4.218365921E0
1.509964125E1,-1.075956092E0,5.289735096E0,2.105715673E0,5.794222760E0
1.510969225E1,-2.317088572E0,5.514978613E0,5.894687442E0,8.398287242E0
1.511974325E1,-3.931177223E0,7.112167203E0,7.075356642E0,1.077486651E1
1.512979325E1,-7.031826460E0,9.870857821E0,6.646547574E0,1.382233743E1
1.513984425E1,-1.000464328E1,1.332093257E1,9.004118612E0,1.893711393E1
1.514989525E1,-1.212791464E1,1.744130874E1,1.233595506E1,2.456545036E1
1.515994625E1,-1.287933915E1,2.114250737E1,1.457195021E1,2.872672497E1
1.516999625E1,-1.244541728E1,2.243775685E1,1.301666803E1,2.877107906E1
1.518004725E1,-1.121923160E1,2.222767107E1,1.072519684E1,2.711033689E1
1.519009825E1,-1.016416234E1,2.148225866E1,1.024197358E1,2.587847863E1
1.520014825E1,-7.934639481E0,1.931355211E1,1.265141469E1,2.441372754E1
1.521019925E1,-4.880317149E0,1.673705605E1,1.463229698E1,2.276072617E1
1.522025025E1,-2.752327385E0,1.499136163E1,1.337431765E1,2.027778593E1
1.523030125E1,-8.572608715E-1,1.285995095E1,9.392722811E0,1.594793016E1
1.524035125E1,2.409506008E-1,1.108663780E1,4.476392076E0,1.195866551E1
1.525040225E1,5.660610536E-1,8.879533743E0,1.058275867E0,8.960273010E0
1.526045325E1,1.094206495E0,5.554034505E0,-1.216370837E0,5.790003899E0
1.527050325E1,3.438656601E0,-9.978595108E-1,-6.249736809E0,7.202728164E0
1.528055425E1,6.901525353E0,-8.156865250E0,-1.783395862E1,2.078979517E1
1.529060525E1,8.172775524E0,-1.058120331E1,-2.239369457E1,2.608128984E1
1.530065625E1,7.781803204E0,-1.021413382E1,-1.459166351E1,1.943712002E1
1.531070625E1,6.518335091E0,-6.649625548E0,-5.843620784E0,1.099336692E1
1.532075725E1,2.325975755E0,1.434127872E0,1.298003288E1,1.326454446E1
1.533080825E1,-5.231343631E0,7.408841477E0,2.854769258E1,2.995377505E1
1.534085825E1,-8.687159178E0,-8.760395554E0,2.692745017E1,2.961923088E1
1.535090925E1,-3.176017800E0,-2.395524731E1,-1.351093317E0,2.420261175E1
1.536096025E1,-3.006182790E0,-2.216194837E1,4.842963381E0,2.288325555E1
1.537101125E1,-7.620411866E0,-1.034093303E1,1.324433171E1,1.845041721E1
1.538106125E1,-8.816744002E0,3.667792318E0,4.760794798E0,1.067018474E1
1.539111225E1,-1.103309133E1,1.276130258E1,-1.291669087E0,1.691887576E1
1.540116325E1,-1.257173585E1,1.390020453E1,6.249808145E-1,1.875246195E1
1.541121325E1,-1.275526942E1,1.172532565E1,6.193941507E0,1.839959432E1
1.542126425E1,-9.867493333E0,6.482281160E0,6.932112722E0,1.369093059E1
1.543131525E1,-1.802498365E0,-1.387020364E0,7.601864498E0,7.934807476E0
1.544136625E1,1.391694336E0,-2.086710351E1,1.781374948E1,2.747184909E1
1.545141625E1,-3.837249890E-1,-4.386513823E1,1.930137352E1,4.792536506E1
1.546146725E1,1.860846268E0,-4.769521417E1,-5.707736536E-1,4.773491370E1
1.547151825E1,8.297652755E0,-3.592330725E1,-2.425980772E1,4.413471781E1
1.548156825E1,1.156857817E1,-2.469240111E1,-2.110534714E1,3.448162339E1
1.549161925E1,1.290125685E1,-1.628400910E1,-7.408940295E0,2.205683062E1
1.550167025E1,1.356387737E1,-1.081378566E1,-1.778372461E0,1.743787080E1
1.551172125E1,1.286156829E1,-4.624040118E0,-5.038657994E0,1.456673472E1
1.552177125E1,8.550812634E0,4.452584553E-1,-1.373312502E1,1.618373797E1
1.553182225E1,1.221142165E0,3.771969236E0,-2.027396429E1,2.065799042E1
1.554187325E1,-1.577238767E0,6.179344518E0,-1.738312426E1,1.851607383E1
1.555192325E1,-3.160303116E-2,7.009279597E0,-1.109994840E1,1.312782745E1
1.556197425E1,2.431716364E0,7.326712655E0,-6.698441613E0,1.022071831E1
1.557202525E1,5.067429804E0,8.391042729E0,-2.739666993E0,1.017812449E1
1.558207625E1,7.601490861E0,8.343236479E0,-2.676755338E0,1.159988265E1
1.559212625E1,8.752818732E0,7.513719476E0,-8.143755208E0,1.412050159E1
1.560217725E1,8.633557168E0,6.525473957E0,-1.511313808E1,1.858835825E1
1.561222825E1,4.391835783E0,6.957063961E0,-1.436434599E1,1.655365205E1
1.562227825E1,9.168238261E-1,9.684457941E0,-8.458561113E0,1.289094828E1
1.563232925E1,-6.578205317E-2,1.102610157E1,-4.244778309E0,1.181513377E1
1.564237987E1,-1.205695868E-1,1.081334244E1,-1.998422189E0,1.099711795E1
1.565243088E1,9.526160949E-1,9.624959598E0,-8.218229440E-1,9.706838705E0
1.566248087E1,3.452017781E0,7.402431759E0,-1.408174421E0,8.288267485E0
1.567253187E1,6.235423409E0,5.230900996E0,-4.197617007E0,9.157664487E0
1.568258288E1,7.744930077E0,3.487351336E0,-7.092254511E0,1.106551559E1
1.569263287E1,8.326217573E0,1.648305534E0,-5.086642585E0,9.895288929E0
1.570268387E1,7.514254496E0,-8.082167655E-1,2.292730533E0,7.897711584E0
1.571273488E1,5.638743703E0,-5.158359269E0,7.824145816E0,1.093715496E1
1.572278587E1,5.441092612E0,-7.785054256E0,7.645069574E0,1.219260626E1
1.573283587E1,5.738897152E0,-1.808833940E1,3.354096215E0,1.927103848E1
1.574288687E1,7.395229744E0,-3.186090039E1,-8.576956120E0,3.381376307E1
1.575293787E1,8.318657708E0,-4.017764079E1,-1.514375761E1,4.373529787E1
1.576298888E1,5.196580179E0,-4.040303926E1,-9.662863004E0,4.186622682E1
1.577303887E1,3.270433376E0,-3.409833044E1,-1.901216322E0,3.430752828E1
1.578308987E1,2.443912779E0,-3.040253697E1,8.591416284E-2,3.050072696E1
1.579314088E1,9.527730927E-1,-2.975110569E1,1.656227488E0,2.981239937E1
1.580319087E1,4.897989627E-1,-2.414646997E1,5.885208521E0,2.485814946E1
1.581324187E1,1.643190682E0,-1.376953563E1,1.048048268E1,1.738219504E1
1.582329288E1,2.156002751E0,-5.623012939E0,1.116351348E1,1.268426803E1
1.583334387E1,8.350658642E-1,-7.721575713E-1,5.494242632E0,5.610727619E0
1.584339387E1,-5.564964706E-1,2.498550332E0,3.651661019E0,4.459492155E0
1.585344487E1,-1.436122211E0,4.540000427E0,4.096950465E0,6.281644211E0
1.586349587E1,-1.643641064E0,5.375848795E0,7.124755674E0,9.075431099E0
1.587354588E1,-1.224501829E0,6.044529945E0,1.122692186E1,1.280935288E1
1.588359687E1,-1.472560451E0,7.973279636E0,1.024395228E1,1.306446251E1
1.589364787E1,-2.898601624E0,1.084465078E1,7.593622262E0,1.355254371E1
1.590369788E1,-4.573010883E0,1.394427266E1,8.366695508E0,1.689250610E1
1.591374887E1,-7.508672159E0,1.665163291E1,1.145165491E1,2.155916131E1
1.592379987E1,-1.132075797E1,1.787854481E1,1.292937962E1,2.479860446E1
1.593385088E1,-1.402974141E1,1.963756036E1,1.311522753E1,2.746773769E1
1.594390087E1,-1.683071207E1,2.162758770E1,1.553635955E1,3.150244255E1
1.595395187E1,-1.482241686E1,2.391233342E1,2.114981171E1,3.519685024E1
1.596400288E1,-7.526560546E0,2.308186274E1,2.174718197E1,3.259388631E1
1.597405287E1,-4.308536056E0,1.809161501E1,1.633402385E1,2.475217873E1
1.598410387E1,-3.370367262E0,1.482125326E1,9.569153772E0,1.796100297E1
1.599415487E1,-2.726696992E0,1.232942723E1,5.209073925E0,1.365957918E1
1.600420587E1,-2.874978288E0,9.475227023E0,2.752858604E0,1.027733710E1
1.601425588E1,-1.998271039E0,5.608609493E0,-3.380028324E-1,5.963542026E0
1.602430687E1,1.239905880E0,-5.341437346E-1,-8.691614757E0,8.795842381E0
1.603435787E1,5.121984910E0,-8.726019773E0,-3.017725779E1,3.182836845E1
1.604440788E1,6.972224037E0,-1.437253092E1,-3.396378601E1,3.753292305E1
1.605445887E1,4.636968312E0,-1.335995455E1,-1.080159890E1,1.779506672E1
1.606450987E1,2.853501757E0,-1.124497455E1,1.792005537E0,1.173896114E1
1.607456088E1,1.783210447E0,-3.592808794E0,9.929145205E0,1.070868988E1
1.608461087E1,-1.464898552E0,6.040974838E0,1.972085044E1,2.067731237E1
1.609466187E1,-5.809375981E0,1.128673069E1,2.664435840E1,2.951374211E1
1.610471287E1,-5.422990801E0,1.572116899E0,2.565671923E1,2.627066087E1
1.611476287E1,9.359491915E-1,-1.783975789E1,1.031331897E0,1.789403834E1
1.612481388E1,1.281683066E0,-1.642434462E1,8.840152745E0,1.869625920E1
1.613486487E1,-2.480145343E0,-1.403897065E1,1.513414479E1,2.079149241E1
1.614491587E1,-3.385813851E0,-4.523388487E-1,1.432060297E0,3.703936091E0
1.615496588E1,-4.740827726E0,1.117598910E1,-9.663400948E0,1.551642671E1
1.616501687E1,-7.967037148E0,9.719555268E0,-3.644700494E0,1.308538411E1
1.617506787E1,-1.151669700E1,5.765587353E0,3.777123556E0,1.342173497E1
1.618511788E1,-1.310529895E1,-5.762049202E0,1.600115589E1,2.147060925E1
1.619516887E1,-1.184773828E1,-2.491871408E1,2.461310351E1,3.697453283E1
1.620521987E1,-7.291290808E0,-3.305743016E1,2.007128577E1,3.935496312E1
1.621527087E1,-6.987506028E-1,-3.242412057E1,4.472030053E0,3.273852318E1
1.622532087E1,6.018895751E0,-2.778243472E1,-2.116106409E1,3.543841727E1
1.623537187E1,9.717872440E0,-2.225561141E1,-2.725064449E1,3.650132750E1
1.624542287E1,1.131480785E1,-1.874720249E1,-1.370371119E1,2.583165071E1
1.625547287E1,1.136025825E1,-1.620191653E1,-2.965696377E0,2.000882110E1
1.626552388E1,1.118571068E1,-9.564871856E0,-2.899298612E0,1.500042764E1
1.627557487E1,1.033047353E1,-2.429555526E0,-8.811917710E0,1.379388695E1
1.628562587E1,6.606926841E0,3.225305443E0,-1.642686243E1,1.799710773E1
1.629567588E1,1.549165993E0,6.828287807E0,-1.914827939E1,2.038828176E1
1.630572687E1,-5.880027303E-1,7.153025792E0,-1.389565657E1,1.563971856E1
1.631577787E1,1.470585846E0,5.928967329E0,-1.006881063E1,1.177693610E1
1.632582787E1,5.805696913E0,4.734736097E0,-6.941407456E0,1.021307887E1
1.633587887E1,8.965947404E0,4.852330620E0,-1.855887829E0,1.036231851E1
1.634592987E1,9.888552665E0,6.161611083E0,-4.299136072E-2,1.165121338E1
1.635598087E1,1.039292530E1,7.618071225E0,-6.139198705E0,1.427367038E1
1.636603087E1,1.044835106E1,8.966561362E0,-1.287366735E1,1.884936534E1
1.637608188E1,7.913839180E0,1.119891486E1,-1.108920122E1,1.763561534E1
1.638613287E1,3.953649243E0,1.341194799E1,-6.720738215E0,1.551386520E1
1.639618287E1,1.528995730E0,1.380204615E1,-4.705985922E0,1.466221707E1
1.640623388E1,2.797132552E-1,1.268865911E1,-3.698025931E0,1.321951986E1
1.641628487E1,-6.553012589E-1,1.013475202E1,-2.578750741E0,1.047819515E1
1.642633587E1,-5.473040628E-1,7.430785493E0,-2.938014489E0,8.009247400E0
1.643638588E1,1.046100209E0,5.184085264E0,-4.468626681E0,6.923704940E0
1.644643687E1,2.647919210E0,2.965713041E0,-5.310137200E0,6.633587798E0
1.645648787E1,3.289759301E0,1.053541376E0,-4.912113723E0,6.005108401E0
1.646653787E1,2.632110970E0,-9.463016868E-2,-3.923349556E0,4.725424294E0
1.647658887E1,1.504156319E0,-1.821030530E0,1.891848352E-1,2.369478704E0
1.648663988E1,1.385402001E0,-6.162753628E0,4.878594559E0,7.981200152E0
1.649669087E1,3.157860149E0,-1.184836393E1,7.039942396E0,1.413918660E1
1.650674087E1,5.843096874E0,-2.529265522E1,3.326434207E0,2.617107857E1
1.651679188E1,1.008450806E1,-4.383452220E1,-6.706447620E0,4.547679715E1
1.652684287E1,1.492546000E1,-4.896146380E1,-1.343649109E1,5.292006790E1
1.653689287E1,1.287950404E1,-4.030919847E1,-9.388020480E0,4.334568068E1
1.654694388E1,5.121421824E0,-3.438083749E1,-1.301269338E0,3.478454039E1
1.655699487E1,-7.050262731E-1,-3.015229953E1,3.689921690E0,3.038542004E1
1.656704487E1,-2.508875930E0,-1.998219993E1,6.883248711E0,2.128290124E1
1.657709587E1,-1.955569408E0,-9.447800074E0,1.162907230E1,1.511027797E1
1.658714687E1,-1.097414643E0,-3.053611311E0,9.253481895E0,9.805905777E0
1.659719787E1,-2.023490957E0,1.382733185E0,3.033221485E0,3.899602453E0
1.660724787E1,-2.400264191E0,5.753245050E0,1.824127800E0,6.495270512E0
1.661729887E1,-3.452847501E0,7.315443317E0,3.193594823E0,8.696948584E0
1.662734988E1,-3.881434375E0,8.365336030E0,5.886694883E0,1.094063784E1
1.663739987E1,-3.844605103E0,9.924918838E0,6.570784616E0,1.250840569E1
1.664745075E1,-5.584069898E0,1.166750137E1,4.529777740E0,1.370515637E1
1.665750175E1,-8.217673370E0,1.335921312E1,5.123402860E0,1.649993902E1
1.666755275E1,-9.522398266E0,1.536605823E1,8.967079425E0,2.017920533E1
1.667760275E1,-1.001846493E1,1.741715740E1,1.008240190E1,2.248069926E1
1.668765375E1,-1.012330083E1,1.803497654E1,9.879324589E0,2.292035455E1
1.669770475E1,-1.004005402E1,1.784115070E1,9.675976555E0,2.264362748E1
1.670775475E1,-9.936945391E0,1.812355016E1,9.796570700E0,2.287310105E1
1.671780575E1,-9.090160975E0,1.887065826E1,1.180891160E1,2.404543955E1
1.672785675E1,-7.399677136E0,1.919993135E1,1.539548259E1,2.569851104E1
1.673790775E1,-5.099184862E0,1.673898095E1,1.769150642E1,2.488341956E1
1.674795775E1,-3.537002383E0,1.339266387E1,1.487166796E1,2.032339389E1
1.675800875E1,-3.032661906E0,1.118002836E1,1.044953220E1,1.560073060E1
1.676805975E1,-2.354560600E0,8.917460538E0,7.029734911E0,1.159664740E1
1.677810975E1,-1.524451859E0,5.971520441E0,4.293203487E0,7.510965719E0
1.678816075E1,-1.435934369E-1,1.074418859E0,1.146508889E0,1.577807844E0
1.679821175E1,2.599066600E0,-8.578343080E0,-8.534745655E0,1.237679282E1
