"Time (s)","Linear Acceleration x (m/s^2)","Linear Acceleration y (m/s^2)","Linear Acceleration z (m/s^2)","Absolute acceleration (m/s^2)"
1.093500003E-3,-1.562571319E0,-1.709902443E0,1.064403749E-1,2.318776627E0
1.114350000E-2,-2.490427087E0,-5.772102320E-1,3.213785259E0,4.106557490E0
2.119250000E-2,-3.320059280E0,7.355335361E-1,6.846474402E0,7.644476106E0
3.124250000E-2,-3.330904696E0,2.783701497E0,7.687988137E0,8.828877715E0
4.129250001E-2,-3.176099954E0,4.545448862E0,7.409730839E0,9.254881273E0
5.134150000E-2,-3.136309943E0,5.943281313E0,6.095625254E0,9.072798910E0
6.139150000E-2,-3.158001067E0,6.915918859E0,4.345876375E0,8.757256755E0
7.144050000E-2,-3.074977914E0,7.522212557E0,3.252305546E0,8.753094440E0
8.149050000E-2,-3.195533467E0,7.930319558E0,2.745845454E0,8.980037287E0
9.153950000E-2,-3.493946703E0,8.357711846E0,3.000108118E0,9.542518513E0
1.015895000E-1,-3.597434526E0,9.030439269E0,3.310852839E0,1.026898803E1
1.116385000E-1,-3.555588927E0,9.742629551E0,3.921692747E0,1.108786351E1
1.216885000E-1,-3.719486090E0,9.560512172E0,5.667356468E0,1.171993597E1
1.317375000E-1,-3.691620014E0,9.288587993E0,5.540954869E0,1.142839035E1
1.417875000E-1,-3.328592414E0,8.957894619E0,3.904892527E0,1.032335164E1
1.518365000E-1,-2.662671735E0,8.654467980E0,2.798598449E0,9.477435838E0
1.618865000E-1,-2.068457800E0,8.265191352E0,2.311479777E0,8.828071393E0
1.719355000E-1,-1.516024267E0,7.633813684E0,2.219771754E0,8.093258156E0
1.819855000E-1,-9.411293129E-1,6.902272042E0,2.338662313E0,7.348225986E0
1.920345000E-1,-1.988046744E-1,6.111622066E0,2.028220770E0,6.442447289E0
2.020845000E-1,8.375336815E-1,5.202327408E0,5.486802050E-1,5.297803610E0
2.121335000E-1,1.991235961E0,3.843734452E0,-2.281006427E0,4.893087524E0
2.221835000E-1,3.393968086E0,1.196480656E0,-5.914824668E0,6.923563835E0
2.322335000E-1,5.055172285E0,-3.221231688E0,-9.664921809E0,1.137285426E1
2.422825000E-1,6.300371357E0,-8.664181960E0,-1.171675364E1,1.587592656E1
2.523325000E-1,5.938225810E0,-1.313076942E1,-1.013843109E1,1.762008559E1
2.623815000E-1,2.709848240E0,-1.375397269E1,-9.400920022E0,1.687875408E1
2.724315000E-1,-8.667421317E-1,-9.545325199E0,-9.487634815E0,1.348627782E1
2.824805000E-1,-1.515964625E0,-4.475405066E0,-8.397821406E0,9.635912184E0
2.925305000E-1,-1.555778609E0,-6.137921673E-1,-5.996800877E0,6.225657288E0
3.025795000E-1,-2.265330335E0,1.568778723E0,-2.076908196E0,3.450555877E0
3.126295000E-1,-3.195383779E0,1.587493322E0,1.450273789E0,3.851481092E0
3.226785000E-1,-4.630582568E0,2.443393546E-1,-1.547344000E0,4.888381132E0
3.327285000E-1,-5.474688959E0,-3.685116448E0,-1.159549642E1,1.334195786E1
3.427775000E-1,-1.391291755E0,-1.017239405E1,-1.692230754E1,1.979337732E1
3.528275000E-1,2.084138278E0,-1.260755121E1,-2.174680073E0,1.296237684E1
3.628765000E-1,9.197804707E-1,-6.504241548E0,1.849244164E1,1.962451406E1
3.729265000E-1,-4.121433926E0,-9.851061487E-1,1.543094361E1,1.600220836E1
3.829755000E-1,-6.794360508E0,2.189391083E0,8.963952919E0,1.145902352E1
3.930255000E-1,-7.739245999E0,6.694548537E0,2.833556027E0,1.061800115E1
4.030745000E-1,-6.258571367E0,1.136192354E1,-7.823121384E-1,1.299519274E1
4.131245000E-1,-1.943657752E0,1.353122651E1,3.816477364E0,1.419286426E1
4.231735000E-1,-3.637225413E-1,1.089781249E1,9.763556736E0,1.463631276E1
4.332235000E-1,-1.351013795E0,5.022888054E0,1.090456135E1,1.208156037E1
4.432735000E-1,-1.715676861E0,-5.986987495E-1,9.338720266E0,9.513867956E0
4.533225000E-1,-1.789132215E0,-5.651111734E0,7.369369263E0,9.457465900E0
4.633725000E-1,-1.756917565E0,-1.069724247E1,6.163458803E0,1.247020370E1
4.734215000E-1,-2.110211012E0,-1.325310838E1,5.836033437E0,1.463410942E1
4.834715000E-1,-1.784100686E0,-1.156390391E1,6.785939348E0,1.352611776E1
4.935205000E-1,-7.319529936E-1,-7.335491665E0,6.043266946E0,9.532380004E0
5.035705000E-1,4.914288741E-1,-3.768712921E0,3.744538193E0,5.335378684E0
5.136195000E-1,1.433484971E0,-1.448822510E0,1.454580117E0,2.503950707E0
5.236695000E-1,2.013156588E0,2.153611386E-1,-1.639011092E-1,2.031266463E0
5.337185000E-1,2.059903031E0,1.488148543E0,-8.545224743E-1,2.681043685E0
5.437685000E-1,1.692386523E0,2.349750972E0,-3.063484919E-1,2.911932550E0
5.538175000E-1,1.257333068E0,2.573709857E0,9.733533183E-1,3.025274459E0
5.638675000E-1,5.776245803E-1,2.488513586E0,2.006687229E0,3.248560244E0
5.739165000E-1,-1.090967649E-1,2.207591711E0,2.564353727E0,3.385450237E0
5.839665000E-1,-2.526864012E-1,2.547291552E0,1.570608902E0,3.003224432E0
5.940155000E-1,1.283289881E-1,3.146824699E0,-3.055567972E-1,3.164228021E0
6.040655000E-1,7.764769095E-1,3.136319007E0,-1.391285908E0,3.517824581E0
6.141145000E-1,1.373206024E0,3.007990165E0,-1.103585941E0,3.485914736E0
6.241645000E-1,1.500430474E0,2.996651829E0,7.919578515E-2,3.352235935E0
6.342145000E-1,1.196631952E0,3.103545363E0,7.943998680E-1,3.419794292E0
6.442635000E-1,7.806567916E-1,3.158158357E0,6.185757744E-1,3.311498939E0
6.543135000E-1,7.388483226E-2,3.179779022E0,-3.463690285E-1,3.199441373E0
6.643625000E-1,-8.232085879E-1,2.985374304E0,-1.932404932E0,3.650249435E0
6.744125000E-1,-1.378103068E0,2.504567116E0,-2.813788930E0,4.011163503E0
6.844615000E-1,-1.337009421E0,2.128799311E0,-3.101173148E0,3.992074096E0
6.945115000E-1,-1.012252871E0,1.943092911E0,-3.235244540E0,3.907310222E0
7.045605000E-1,-7.054808941E-1,1.537233580E0,-3.350135311E0,3.752891815E0
7.146105000E-1,-4.137364081E-1,9.144320226E-1,-3.155842275E0,3.311601456E0
7.246595000E-1,-1.516934386E-1,2.086514586E-1,-2.355847864E0,2.369929427E0
7.347095000E-1,3.191115019E-1,-2.381711268E-1,-1.502815114E0,1.554673890E0
7.447585000E-1,1.113508666E0,-5.861927247E-1,-1.147974201E0,1.703340314E0
7.548085000E-1,2.307907420E0,-1.725926737E0,-1.135719022E0,3.097598660E0
7.648575000E-1,3.436881679E0,-3.475051718E0,-1.521637009E0,5.118937322E0
7.749075000E-1,4.585473053E0,-4.909715779E0,-2.249428247E0,7.084617110E0
7.849565000E-1,5.817092552E0,-5.663268680E0,-2.775124509E0,8.579772371E0
7.950065000E-1,6.742629021E0,-5.536962975E0,-2.830594120E0,9.172418884E0
8.050555000E-1,7.048843027E0,-5.221160120E0,-2.323029489E0,9.074313584E0
8.151055000E-1,6.846331730E0,-5.146664253E0,-1.461882266E0,8.688930363E0
8.251545000E-1,6.260132573E0,-5.342560011E0,-1.059511968E0,8.297877615E0
8.352011667E-1,5.464247586E0,-5.192265519E0,-2.144637956E0,7.836905949E0
8.452511667E-1,4.240972064E0,-4.913174992E0,-4.174750593E0,7.717102764E0
8.553001667E-1,2.867159976E0,-5.084946892E0,-5.647154338E0,8.122046746E0
8.653501667E-1,2.497761250E0,-5.113547963E0,-4.220250409E0,7.085033348E0
8.753991667E-1,3.032398782E0,-5.770934047E0,-9.645449996E-2,6.519848588E0
8.854491667E-1,3.652334911E0,-7.626837371E0,3.073486581E0,8.997472887E0
8.954981667E-1,4.114741203E0,-8.094370794E0,2.130734155E0,9.326840932E0
9.055481667E-1,3.988811181E0,-7.074139836E0,1.005429316E0,8.183211911E0
9.155971667E-1,2.581342227E0,-5.523009179E0,-2.496674837E-1,6.101581102E0
9.256471667E-1,2.147214532E-2,-4.614988629E0,-2.728432446E0,5.361242832E0
9.356961667E-1,-2.275369712E0,-3.364128867E0,-4.112806360E0,5.780125129E0
9.457461667E-1,-4.128403807E0,-3.618936492E0,-3.777850950E0,6.664276189E0
9.557951667E-1,-5.241548191E0,-4.496372597E0,-2.578119242E0,7.371424068E0
9.658451667E-1,-5.542678628E0,-5.025592976E0,-1.110716035E0,7.563832444E0
9.758941667E-1,-5.228284367E0,-5.142586990E0,3.268476605E-1,7.340843805E0
9.859441667E-1,-4.658211539E0,-5.163866177E0,1.514948087E0,7.117549884E0
9.959931667E-1,-3.957183884E0,-5.222294480E0,2.765047710E0,7.111761580E0
1.006043167E0,-3.119017388E0,-5.452428024E0,3.282037468E0,7.087242818E0
1.016093167E0,-2.178234888E0,-5.772535014E0,3.032962453E0,6.875007561E0
1.026142167E0,-1.089227664E0,-6.034257556E0,3.186923150E0,6.910510858E0
1.036192167E0,-4.212442330E-1,-5.993641627E0,3.122478647E0,6.771341046E0
1.046241167E0,-1.914067040E-1,-5.417913079E0,1.023891753E0,5.517134490E0
1.056291167E0,6.196645260E-2,-4.470598655E0,-1.222595490E0,4.635173342E0
1.066340167E0,2.092518946E-1,-3.659539558E0,-9.853857918E-1,3.795655581E0
1.076390167E0,-2.488458037E-2,-2.192221720E0,9.944745576E-1,2.407370964E0
1.086439167E0,-5.984726816E-1,2.765206754E-2,4.506032782E0,4.545686485E0
1.096489167E0,-1.045350304E0,2.427079815E0,7.797486606E0,8.233120371E0
1.106538167E0,-1.275404618E0,4.642927794E0,9.351954854E0,1.051867363E1
1.116588167E0,-1.823173535E0,6.231720368E0,8.361114925E0,1.058614865E1
1.126637167E0,-2.192511742E0,7.096718860E0,6.707891883E0,1.000831354E1
1.136687167E0,-2.463873419E0,7.773341698E0,4.906466482E0,9.516770813E0
1.146736167E0,-2.665309121E0,8.353043429E0,3.485346618E0,9.435297996E0
1.156786167E0,-2.900778542E0,8.955888439E0,2.264685971E0,9.682523247E0
1.166835167E0,-3.230679034E0,9.196116616E0,1.966625908E0,9.943513730E0
1.176885167E0,-3.461613647E0,9.238039398E0,2.634989262E0,1.021113654E1
1.186934167E0,-3.293092214E0,9.661117610E0,3.660832669E0,1.084358546E1
1.196984167E0,-3.061593930E0,9.358461050E0,4.894276499E0,1.099582162E1
1.207033167E0,-2.835411057E0,8.691625866E0,4.561484559E0,1.021719421E1
1.217083167E0,-2.897489776E0,8.030647253E0,3.502896159E0,9.228056340E0
1.227133167E0,-3.118402553E0,7.646756496E0,2.836244870E0,8.731643852E0
1.237182167E0,-3.110761704E0,7.323337643E0,2.821308450E0,8.442031389E0
1.247232167E0,-2.569065413E0,7.046478998E0,3.014014551E0,8.083145865E0
1.257281167E0,-1.667154619E0,6.817573954E0,3.122421637E0,7.681681848E0
1.267331167E0,-6.796034566E-1,6.539910733E0,2.875438756E0,7.176380793E0
1.277380167E0,3.843886480E-1,5.726082394E0,1.159635596E0,5.854957637E0
1.287430167E0,1.886755573E0,4.076582274E0,-2.295903963E0,5.044754170E0
1.297479167E0,3.742955351E0,8.898620224E-1,-7.095067606E0,8.071031750E0
1.307529167E0,5.393302149E0,-4.485951689E0,-1.100495453E1,1.305068944E1
1.317578167E0,5.998080833E0,-1.088900658E1,-1.212757199E1,1.736736711E1
1.327628167E0,5.009057634E0,-1.614125752E1,-1.004604508E1,1.966097338E1
1.337677167E0,1.500384719E0,-1.595314791E1,-8.203559945E0,1.800145768E1
1.347727167E0,-2.286703954E0,-9.982046134E0,-8.095098773E0,1.305376896E1
1.357776167E0,-3.268463157E0,-3.637509588E0,-7.580742016E0,9.021195981E0
1.367826167E0,-2.947641344E0,1.379006170E0,-5.155202942E0,6.096422302E0
1.377875167E0,-2.157215025E0,5.050793306E0,1.024288926E0,5.586882627E0
1.387925167E0,-1.928748083E0,6.834083567E0,3.068576967E0,7.735692081E0
1.397975167E0,-3.042557734E0,7.803634368E0,-5.265903014E0,9.893614176E0
1.408024167E0,-3.864675378E0,6.359594296E0,-1.199870637E1,1.411910443E1
1.418074167E0,-3.820986444E0,5.065899003E-1,-4.507829046E0,5.931028026E0
1.428123167E0,-2.965748709E0,-6.280701324E0,7.888231300E0,1.051033147E1
1.438173167E0,-5.705073348E0,-1.690596340E1,1.656074730E-1,1.784339895E1
1.448222167E0,-4.625438772E0,-2.161566172E1,8.103826911E0,2.354365150E1
1.458272167E0,-3.713123442E0,-9.852109308E0,2.015671359E1,2.274081015E1
1.468321167E0,-5.040513316E0,1.238984066E-1,1.214780102E1,1.315261171E1
1.478371167E0,-3.576818413E0,7.019569527E0,1.786575812E0,8.078356234E0
1.488420167E0,4.288156829E-1,1.154745569E1,1.337646767E0,1.163257988E1
1.498470167E0,2.462677079E0,1.188176206E1,6.152840259E0,1.360509064E1
1.508519167E0,1.160156583E0,8.718466925E0,7.982959117E0,1.187793185E1
1.518569167E0,-9.268573558E-1,4.261873521E0,7.486069747E0,8.663940831E0
1.528618167E0,-1.077894371E0,7.079089504E-1,6.120063107E0,6.254451518E0
1.538668167E0,-7.897367135E-1,-2.826438797E0,4.545505873E0,5.410551172E0
1.548717167E0,-9.991066488E-1,-5.299294708E0,4.275301652E0,6.881783397E0
1.558767167E0,-1.290996073E0,-6.364149862E0,5.087240170E0,8.249187043E0
1.568817167E0,-1.405112818E0,-6.280287926E0,5.701435211E0,8.597832397E0
1.578866167E0,-1.185497684E0,-5.667863422E0,5.157936516E0,7.754636654E0
1.588916167E0,-7.226540203E-1,-5.262055546E0,3.723948977E0,6.486852348E0
1.598965167E0,-3.035318881E-2,-4.916713727E0,1.578048899E0,5.163839029E0
1.609015167E0,4.933598439E-1,-3.567495613E0,-3.070231875E-1,3.614511325E0
1.619064167E0,7.817785800E-1,-1.450221748E0,-1.248267106E0,2.067000637E0
1.629114167E0,6.596600658E-1,5.270089620E-1,-1.210455501E0,1.475836159E0
1.639163167E0,6.632508409E-1,2.360012251E0,-8.434333760E-1,2.592477457E0
1.649213167E0,7.160764875E-1,4.087973235E0,-5.642200943E-1,4.188392892E0
1.659262167E0,6.339431342E-1,5.143843557E0,2.062225252E-1,5.186862073E0
1.669312167E0,6.360965176E-1,5.934209942E0,7.373583790E-1,6.013581611E0
1.679361167E0,8.481552950E-1,6.326749901E0,8.086395192E-1,6.434363184E0
1.689411167E0,8.427238163E-1,5.505916598E0,7.605257052E-1,5.621716852E0
1.699460167E0,2.857008040E-1,3.899945490E0,7.264696209E-1,3.977305355E0
1.709510167E0,-2.781008855E-1,2.494590597E0,-3.032294409E-1,2.528293979E0
1.719559167E0,-3.623861602E-1,1.794485925E0,-1.123346021E0,2.147884948E0
1.729609167E0,-5.279753606E-1,1.490277514E0,-1.692856201E0,2.316343491E0
1.739658167E0,-4.646367127E-1,1.369432524E0,-2.406528313E0,2.807598838E0
1.749708167E0,-2.486832511E-1,1.388999646E0,-3.333447357E0,3.619811412E0
1.759758167E0,-2.605811656E-3,1.339149794E0,-3.868514367E0,4.093743076E0
1.769807167E0,4.324191391E-2,9.361035579E-1,-3.902631409E0,4.013563460E0
1.779857167E0,5.932234168E-2,3.367259467E-1,-3.736831563E0,3.752441023E0
1.789906167E0,3.568391991E-1,-2.289278483E-1,-3.312208808E0,3.339231852E0
1.799956167E0,8.767703989E-1,-8.533186787E-1,-2.442214748E0,2.731536559E0
1.810005167E0,1.333157275E0,-1.540009253E0,-1.263592658E0,2.396998795E0
1.820055167E0,1.969294869E0,-2.318539120E0,-4.922139359E-1,3.081561372E0
1.830104167E0,3.098365899E0,-3.189529839E0,-1.155296377E0,4.594309693E0
1.840153875E0,4.491926666E0,-4.083182026E0,-2.860118466E0,6.710443970E0
1.850202875E0,5.269665697E0,-5.067583585E0,-4.098217556E0,8.381238995E0
1.860252875E0,5.490327337E0,-5.833615614E0,-3.710248658E0,8.828403621E0
1.870301875E0,5.463152987E0,-6.328093591E0,-2.307862981E0,8.672775830E0
1.880351875E0,5.328791572E0,-6.464643034E0,-1.277077507E0,8.474582948E0
1.890400875E0,4.995782701E0,-6.207335140E0,-1.635308051E0,8.134069507E0
1.900450875E0,4.343005685E0,-5.932104360E0,-3.124029036E0,7.988186148E0
1.910499875E0,3.467782459E0,-5.768691639E0,-4.706733781E0,8.213200430E0
1.920549875E0,2.833005512E0,-5.649955155E0,-4.824017233E0,7.951041173E0
1.930599875E0,2.726142676E0,-5.737594977E0,-3.150185094E0,7.090522980E0
1.940648875E0,2.761522131E0,-6.551030383E0,-7.109952570E-1,7.144754566E0
1.950698875E0,2.915518496E0,-7.438775128E0,9.815159583E-1,8.049782425E0
1.960747875E0,3.121289324E0,-7.218022272E0,1.926804176E0,8.096596007E0
1.970797875E0,2.692181755E0,-6.016158085E0,1.654631929E0,6.795572641E0
1.980846875E0,1.585601748E0,-4.770222849E0,2.110539334E-1,5.031272472E0
1.990896875E0,-4.554720792E-1,-3.690681828E0,-2.552260808E0,4.510279637E0
2.000945875E0,-2.580494674E0,-2.694192905E0,-4.513178079E0,5.855459379E0
2.010995875E0,-3.770318567E0,-2.442467347E0,-3.597438619E0,5.755216195E0
2.021044875E0,-4.482124394E0,-3.064635651E0,-1.461422090E0,5.622916083E0
2.031094875E0,-4.928117552E0,-3.966983233E0,1.823290479E-1,6.329023816E0
2.041143875E0,-5.012085907E0,-4.571632109E0,1.529942687E0,6.954246897E0
2.051193875E0,-4.651813223E0,-4.780215740E0,2.611627296E0,7.163129618E0
2.061242875E0,-3.858635496E0,-4.939433668E0,3.506521432E0,7.182114272E0
2.071292875E0,-2.743251629E0,-4.887755392E0,3.335845885E0,6.522534020E0
2.081341875E0,-1.349651393E0,-4.693041941E0,2.078913352E0,5.307361140E0
2.091391875E0,-5.410020800E-1,-4.368510363E0,1.479930428E0,4.644002596E0
2.101441875E0,-5.511206867E-1,-4.561697105E0,2.830990269E0,5.396973262E0
2.111490875E0,-4.415890351E-1,-4.746852697E0,2.677334797E0,5.467699061E0
2.121540875E0,-4.465196997E-1,-3.936880013E0,3.932264221E-1,3.981586505E0
2.131589875E0,-3.246819980E-1,-2.587261364E0,-5.091419175E-2,2.608051384E0
2.141639875E0,-2.566337103E-1,-1.413399493E0,1.496999474E0,2.074744903E0
2.151688875E0,-4.293285933E-1,6.944509989E-1,4.709187273E0,4.779438252E0
2.161738875E0,-1.350829607E-1,3.443701286E0,6.449664806E0,7.312694583E0
2.171787875E0,-2.847171561E-1,5.391412328E0,6.764853119E0,8.655150401E0
2.181837875E0,-8.837758749E-1,6.551715676E0,6.622569312E0,9.357588492E0
2.191886875E0,-1.274488652E0,7.457397341E0,5.484077833E0,9.344100069E0
2.201936875E0,-1.599530108E0,8.015864323E0,4.268899243E0,9.221500862E0
2.211985875E0,-2.058316973E0,8.257504018E0,3.832915641E0,9.333503291E0
2.222035875E0,-2.602995636E0,8.374006281E0,3.792316669E0,9.554121268E0
2.232084875E0,-3.051271547E0,8.435151785E0,4.069931358E0,9.850197204E0
2.242134875E0,-3.319984436E0,8.310722451E0,4.944449995E0,1.022438214E1
2.252183875E0,-3.353953543E0,8.258022666E0,5.779399645E0,1.062287169E1
2.262233875E0,-3.179586941E0,8.222190928E0,5.152327867E0,1.021081188E1
2.272282875E0,-2.832571064E0,7.912920583E0,4.165054740E0,9.380056075E0
2.282332875E0,-2.589842032E0,7.636008729E0,3.168467583E0,8.663434532E0
2.292382875E0,-2.459077825E0,7.395710970E0,2.827198057E0,8.290757104E0
2.302431875E0,-2.294546825E0,6.995942098E0,2.932547927E0,7.925149103E0
2.312481875E0,-1.854913245E0,6.573845049E0,2.836378186E0,7.396024816E0
2.322530875E0,-1.238430335E0,6.178943399E0,2.434028061E0,6.755556515E0
2.332580875E0,-5.839403041E-1,5.654473883E0,1.696542140E0,5.932311219E0
2.342629875E0,1.759178683E-1,4.733453802E0,1.217542326E-1,4.738286198E0
2.352679875E0,1.044511959E0,2.950693883E0,-2.793194160E0,4.195179762E0
2.362728875E0,2.069967697E0,-8.712620294E-1,-6.695109869E0,7.061753320E0
2.372778875E0,3.430961373E0,-6.801053231E0,-1.082669398E1,1.323794257E1
2.382827875E0,4.339331587E0,-1.337293303E1,-1.391216677E1,1.977911830E1
2.392877875E0,4.289621191E0,-1.701925671E1,-1.111608554E1,2.077554588E1
2.402926875E0,2.873044614E0,-1.364834858E1,-7.778142262E0,1.596969948E1
2.412976875E0,-2.055832053E-1,-6.617743020E0,-6.729161714E0,9.440254473E0
2.423025875E0,-1.304812312E0,-1.226751106E0,-7.496284833E0,7.707252412E0
2.433075875E0,-1.337403815E0,2.479938059E0,-6.489431135E0,7.074705520E0
2.443125875E0,-1.295164991E0,4.550293280E0,-1.272199759E0,4.899093133E0
2.453174875E0,-1.036878127E0,4.946031082E0,1.740610850E-1,5.056543975E0
2.463224875E0,-8.821772461E-1,3.095974388E0,-9.018746007E0,9.576067755E0
2.473273875E0,-7.387484814E-1,3.451131928E-1,-1.405781506E1,1.408144228E1
2.483323875E0,-2.182972010E0,-1.645687151E0,2.557225971E0,3.743401884E0
2.493372875E0,-2.431239232E0,-2.019797271E0,1.731166544E1,1.759784832E1
2.503422875E0,-6.825489914E0,-3.996094181E0,3.386860211E0,8.603888851E0
2.513471875E0,-6.490167884E0,-9.663329027E0,-2.744372540E0,1.195967339E1
2.523521875E0,-3.945338010E0,-6.753035896E0,8.847296873E0,1.180863446E1
2.533570875E0,-4.910181218E0,-4.107253844E-1,1.154572492E1,1.255318042E1
2.543620875E0,-5.834886798E0,4.757656597E0,5.234475399E0,9.169565582E0
2.553669875E0,-2.308933022E0,8.973649356E0,1.418430144E0,9.373873188E0
2.563719875E0,1.330680102E0,9.713160753E0,5.261725763E0,1.112663289E1
2.573768875E0,8.822496054E-1,7.262783293E0,8.024393656E0,1.085897228E1
2.583818875E0,-8.957011250E-1,3.626016301E0,7.447916665E0,8.331970797E0
2.593868875E0,-1.399846816E0,5.895361626E-1,6.316584517E0,6.496642514E0
2.603917875E0,-1.338348433E0,-2.318680623E0,5.581651490E0,6.190499956E0
2.613967875E0,-1.249214647E0,-5.021027470E0,5.652744277E0,7.663208985E0
2.624016875E0,-1.565891953E0,-7.077533560E0,7.142386783E0,1.017630522E1
2.634066875E0,-2.083428572E0,-8.321379002E0,7.701815633E0,1.152839916E1
2.644115875E0,-2.270380721E0,-8.984148617E0,6.840673964E0,1.151800223E1
2.654165875E0,-2.158711327E0,-9.317725253E0,4.597673854E0,1.061219315E1
2.664214875E0,-1.154294895E0,-7.777832944E0,1.446905208E0,7.995037004E0
2.674264875E0,2.226078853E-1,-4.796104964E0,-1.018665658E0,4.908141891E0
2.684313875E0,1.331507775E0,-1.646433256E0,-2.223718332E0,3.070599069E0
2.694363875E0,2.111737574E0,9.989014846E-1,-1.907062368E0,3.015646968E0
2.704412875E0,2.682071042E0,3.079150779E0,-7.135287094E-1,4.145334464E0
2.714462875E0,2.753858770E0,4.676530573E0,2.009699714E-1,5.430843881E0
2.724511875E0,2.282767609E0,5.653136040E0,1.338099049E0,6.241753288E0
2.734561875E0,1.855556438E0,6.318574324E0,2.891926442E0,7.192406394E0
2.744610875E0,1.630487899E0,6.790744005E0,2.385672172E0,7.379981480E0
2.754660875E0,1.098829231E0,6.413067668E0,1.012727811E0,6.584867517E0
2.764710875E0,-1.173378307E-1,4.736404892E0,5.174937880E-1,4.766036014E0
2.774759875E0,-1.455051841E0,3.055349103E0,5.234310508E-2,3.384534503E0
2.784809875E0,-2.481338468E0,2.313300599E0,-1.059945393E0,3.554136251E0
2.794858875E0,-2.888335667E0,2.387435108E0,-1.975919618E0,4.236341306E0
2.804908875E0,-3.037689342E0,2.503977717E0,-3.025283305E0,4.964856496E0
2.814957875E0,-2.948677179E0,2.398775198E0,-4.245534647E0,5.698542269E0
2.825007875E0,-1.914261168E0,2.244390578E0,-5.315627736E0,6.079274884E0
2.835057000E0,-5.800616267E-1,1.572563041E0,-5.583372910E0,5.829535064E0
2.845107000E0,5.025632152E-1,3.581156462E-1,-4.243702129E0,4.288335850E0
2.855156000E0,1.370036834E0,-9.706699580E-1,-1.831746430E0,2.484853331E0
2.865206000E0,2.037780090E0,-2.011627541E0,4.955749154E-1,2.905991665E0
2.875255000E0,2.668664838E0,-2.720106010E0,1.485894442E0,4.090064916E0
2.885305000E0,3.421611967E0,-3.245466058E0,5.703008696E-1,4.750339090E0
2.895354000E0,4.431101005E0,-4.052089457E0,-2.243717271E0,6.410019679E0
2.905404000E0,5.633995764E0,-5.124598616E0,-5.977968750E0,9.681917662E0
2.915453000E0,6.362693905E0,-6.063665543E0,-7.755412381E0,1.172170358E1
2.925503000E0,6.344002111E0,-6.213234980E0,-6.202527559E0,1.083152805E1
2.935553000E0,5.405784785E0,-5.427065141E0,-3.429048164E0,8.392491674E0
2.945602000E0,4.012219632E0,-4.589482489E0,-1.544813325E0,6.288696535E0
2.955652000E0,3.301722704E0,-4.241828681E0,-8.673978969E-1,5.444893249E0
2.965701000E0,3.456261106E0,-4.275762997E0,-1.778604011E0,5.778522498E0
2.975751000E0,4.099455120E0,-4.897097488E0,-3.529994787E0,7.297119931E0
2.985800000E0,4.441606113E0,-5.793806600E0,-4.580172260E0,8.618238667E0
2.995850000E0,4.309757832E0,-6.356292374E0,-4.098809587E0,8.704981639E0
3.005899000E0,4.091041853E0,-6.821832481E0,-2.142718315E0,8.238037608E0
3.015949000E0,3.915080423E0,-7.031576784E0,-4.858381319E-1,8.062689718E0
3.025998000E0,3.609561067E0,-6.579282374E0,-1.944292760E-1,7.506909511E0
3.036048000E0,2.803553964E0,-6.231177746E0,-3.436320931E-2,6.832910929E0
3.046097000E0,1.825990723E0,-5.516335752E0,-4.898469830E-1,5.831307942E0
3.056147000E0,1.014520567E0,-4.172093618E0,-1.390239841E0,4.513134604E0
3.066196000E0,-4.827192271E-1,-2.558772560E0,-2.911135715E0,3.905770861E0
3.076246000E0,-2.167395612E0,-1.869608613E0,-3.692873365E0,4.672296415E0
3.086296000E0,-3.351618749E0,-2.178093093E0,-2.956682602E0,4.971861801E0
3.096345000E0,-4.011921132E0,-3.094484518E0,-7.062366468E-1,5.115673543E0
3.106395000E0,-4.252499265E0,-4.238841923E0,1.492906423E0,6.187107599E0
3.116444000E0,-4.238898934E0,-5.243779489E0,2.768748997E0,7.289132905E0
3.126494000E0,-4.050750152E0,-5.892029883E0,3.334826131E0,7.889591767E0
3.136543000E0,-3.567566364E0,-6.328042721E0,3.054124696E0,7.880312944E0
3.146593000E0,-2.822146063E0,-6.651031219E0,1.953692744E0,7.484493304E0
3.156642000E0,-1.738850546E0,-6.418510841E0,7.472506253E-1,6.691731176E0
3.166692000E0,-1.264424132E0,-5.581404153E0,1.085402416E0,5.824855286E0
3.176741000E0,-1.372142124E0,-5.228988957E0,2.811430163E0,6.093376657E0
3.186791000E0,-1.256534045E0,-4.879972163E0,2.399083200E0,5.581093649E0
3.196840000E0,-1.244624729E0,-4.010521016E0,4.912840824E-1,4.227851651E0
3.206890000E0,-9.367375423E-1,-3.086745143E0,2.577652927E-1,3.236033953E0
3.216939000E0,-6.818547808E-1,-1.880234758E0,1.849841662E0,2.724357330E0
3.226989000E0,-4.587899356E-1,3.428766328E-1,5.051482108E0,5.083849336E0
3.237039000E0,2.274278913E-1,2.521683086E0,8.062844946E0,8.451040034E0
3.247088000E0,1.584876839E-1,4.210230913E0,8.749698658E0,9.711250655E0
3.257138000E0,-3.356927437E-1,5.412600299E0,7.612828027E0,9.346875531E0
3.267187000E0,-8.674334919E-1,5.848188044E0,6.734394972E0,8.961351456E0
3.277237000E0,-1.172011520E0,6.324074215E0,6.013414571E0,8.805037223E0
3.287286000E0,-1.380958848E0,6.981617004E0,5.186604245E0,8.806298140E0
3.297336000E0,-1.406718025E0,7.656728337E0,5.432738695E0,9.493102452E0
3.307385000E0,-1.587247446E0,8.237750369E0,5.467368829E0,1.001359114E1
3.317435000E0,-1.836321292E0,8.389815398E0,6.512760356E0,1.077854933E1
3.327484000E0,-2.334847151E0,8.704704918E0,6.600799543E0,1.117112141E1
3.337534000E0,-2.876088089E0,9.283119677E0,4.502589356E0,1.071081251E1
3.347583000E0,-3.319752886E0,9.726415222E0,2.707930353E0,1.062811362E1
3.357633000E0,-3.251696851E0,9.982802764E0,2.586865507E0,1.081303642E1
3.367682000E0,-2.859978426E0,9.877373958E0,3.458292428E0,1.084904509E1
3.377732000E0,-2.412115620E0,9.405777889E0,3.767929687E0,1.041557745E1
3.387782000E0,-1.753332929E0,8.464410667E0,3.762006165E0,9.427253826E0
3.397831000E0,-8.545555841E-1,7.174603772E0,3.126305358E0,7.872673607E0
3.407881000E0,1.165883638E-2,5.693777697E0,1.154970395E0,5.809750167E0
3.417930000E0,7.584180032E-1,3.863191647E0,-1.997332561E0,4.414610394E0
3.427980000E0,1.520898944E0,1.500449331E0,-6.052197983E0,6.418222668E0
3.438029000E0,2.257604409E0,-1.895469094E0,-1.027170083E1,1.068631923E1
3.448079000E0,2.773837245E0,-6.157209883E0,-1.316190819E1,1.479328340E1
3.458128000E0,1.949320488E0,-1.005382188E1,-9.844926589E0,1.420569478E1
3.468178000E0,-5.961139879E-1,-1.259914993E1,-6.796868379E0,1.432799186E1
3.478227000E0,-3.279616721E0,-1.165724067E1,-7.906093959E0,1.446213911E1
3.488277000E0,-3.748797012E0,-7.110460401E0,-7.923898730E0,1.128717401E1
3.498326000E0,-2.458958834E0,-2.641936923E0,-5.709733579E0,6.754803239E0
3.508376000E0,-1.316380444E0,5.664548635E-1,-2.654018440E0,3.016213266E0
3.518425000E0,-9.071083850E-1,2.492909523E0,6.552460027E-1,2.732542924E0
3.528475000E0,-1.758766162E0,2.890990303E0,-2.006569700E0,3.934133361E0
3.538525000E0,-4.223147704E0,8.490133739E-1,-1.375820724E1,1.441679807E1
3.548574000E0,-5.956545137E0,-4.636550821E0,-1.747530679E1,1.903587090E1
3.558624000E0,-4.220721402E0,-9.495646085E0,1.582865251E0,1.051129136E1
3.568673000E0,-3.495270220E0,-1.029967507E1,1.160406025E1,1.590454133E1
3.578723000E0,-3.524133538E0,-8.523638284E0,1.110025479E1,1.443217181E1
3.588772000E0,-3.698983705E0,-1.460443266E0,1.704080487E1,1.749869725E1
3.598822000E0,-5.410823915E0,4.853698284E0,1.027380816E1,1.258517130E1
3.608871000E0,-3.772476774E0,1.053541727E1,-1.961308157E-1,1.119218769E1
3.618921000E0,2.184299766E0,1.480886652E1,-2.022499854E0,1.510510506E1
3.628970000E0,6.292351316E0,1.334584405E1,6.425716950E0,1.609332398E1
3.639020000E0,5.049049666E0,7.918726868E0,1.094782373E1,1.442407647E1
3.649069000E0,1.655717026E0,2.264874544E0,8.356924226E0,8.815284345E0
3.659119000E0,-1.085065908E0,-2.471664249E0,5.457795768E0,6.088844458E0
3.669169000E0,-2.285180170E0,-6.868130150E0,3.619719142E0,8.092936848E0
3.679218000E0,-2.467321230E0,-9.398895131E0,3.349356462E0,1.027837986E1
3.689268000E0,-2.676722009E0,-9.757248759E0,6.351712250E0,1.194625433E1
3.699317000E0,-2.651646810E0,-9.093160012E0,9.238875550E0,1.323153851E1
3.709367000E0,-2.364930929E0,-7.328354554E0,7.624676825E0,1.083666810E1
3.719416000E0,-1.785282993E0,-5.347552949E0,4.785279429E0,7.394758760E0
3.729466000E0,-1.084739634E0,-4.032072684E0,2.128402724E0,4.686615874E0
3.739515000E0,-3.211322996E-1,-2.709192767E0,4.328974414E-1,2.762291005E0
3.749565000E0,2.516024736E-1,-1.650449708E0,-4.614166510E-1,1.732106628E0
3.759614000E0,5.975583963E-1,-7.817674702E-1,-5.782076939E-1,1.141297749E0
3.769664000E0,9.838335022E-1,2.377331704E-1,-2.064955171E-1,1.032998460E0
3.779713000E0,1.518414462E0,1.339604707E0,4.877022608E-1,2.082781013E0
3.789763000E0,1.840873349E0,2.231844792E0,1.077887428E0,3.087359255E0
3.799812000E0,1.878056817E0,2.892764933E0,1.266708055E0,3.674198642E0
3.809862000E0,1.958631887E0,3.577063411E0,1.135677214E0,4.233365594E0
3.819912000E0,2.157986273E0,4.303226784E0,5.797765750E-1,4.848794323E0
3.829961000E0,2.403551788E0,4.633987402E0,-6.850649022E-2,5.220688995E0
3.840014875E0,2.656125192E0,4.561031107E0,-6.525633001E-1,5.318255791E0
3.850063875E0,2.332848718E0,3.933826597E0,-1.180107282E0,4.723328068E0
3.860113875E0,1.118321363E0,2.820345998E0,-1.465001317E0,3.369157621E0
3.870162875E0,3.846123040E-2,1.994340248E0,-1.801117837E0,2.687544931E0
3.880212875E0,-6.032095841E-1,1.587097465E0,-2.103508349E0,2.703236494E0
3.890261875E0,-8.477073982E-1,1.513992652E0,-2.124522657E0,2.743059989E0
3.900311875E0,-1.118531131E0,1.474998155E0,-1.923550347E0,2.669602477E0
3.910360875E0,-1.431710925E0,1.573711435E0,-2.391027929E0,3.200527833E0
3.920410875E0,-1.604512812E0,1.687025211E0,-3.300963736E0,4.039415430E0
3.930459875E0,-1.358770418E0,1.341508561E0,-4.037855580E0,4.466562431E0
3.940509875E0,-8.121420014E-1,4.782496154E-1,-3.973421602E0,4.083671945E0
3.950559875E0,-3.180242121E-2,-6.742190480E-1,-2.978745608E0,3.054260650E0
3.960608875E0,1.138907509E0,-1.643937664E0,-2.166574663E0,2.948505914E0
3.970658875E0,2.573546720E0,-2.483589061E0,-2.726658400E0,4.497335141E0
3.980707875E0,3.939321518E0,-3.377823046E0,-3.780454423E0,6.420263094E0
3.990757875E0,5.256134655E0,-4.256006425E0,-3.843240655E0,7.778884299E0
4.000806875E0,6.504879479E0,-4.890276711E0,-2.978930672E0,8.666157816E0
4.010856875E0,7.832986806E0,-5.002837951E0,-2.594944313E0,9.649756777E0
4.020905875E0,8.494253687E0,-5.246723562E0,-2.972732624E0,1.041717779E1
4.030955875E0,8.176294963E0,-5.627570259E0,-3.479595589E0,1.051802889E1
4.041004875E0,6.682489824E0,-5.720522861E0,-3.580818786E0,9.497489944E0
4.051054875E0,4.627765964E0,-5.804937944E0,-2.853762543E0,7.953457299E0
4.061103875E0,3.147518179E0,-5.888336781E0,-1.590576559E0,6.863622551E0
4.071153875E0,2.633840576E0,-6.476691806E0,-1.271538439E-1,6.992912200E0
4.081202875E0,2.600367313E0,-7.941738001E0,7.440643314E-1,8.389680826E0
4.091252875E0,2.512751464E0,-8.637215770E0,3.996010566E-1,9.004171100E0
4.101302875E0,1.933206731E0,-8.486114362E0,-5.839126030E-1,8.723094587E0
4.111351875E0,7.160506135E-1,-7.066981675E0,-2.391235213E0,7.494862529E0
4.121401875E0,-4.140685299E-1,-4.166939882E0,-3.683282762E0,5.576864050E0
4.131450875E0,-2.180378770E0,-2.343563449E0,-3.741495302E0,4.923934231E0
4.141500875E0,-4.120481707E0,-3.402678391E0,-4.008490278E0,6.680163474E0
4.151549875E0,-4.545502657E0,-2.910276759E0,-2.916245012E0,6.134801561E0
4.161599875E0,-4.366386946E0,-2.892008888E0,-3.179050020E-1,5.246914709E0
4.171648875E0,-4.271989497E0,-3.848259612E0,1.689730718E0,5.992844584E0
4.181698875E0,-4.232509974E0,-4.692526217E0,2.704077038E0,6.873570804E0
4.191747875E0,-3.993721966E0,-5.378017527E0,3.471890713E0,7.544992563E0
4.201797875E0,-3.620604703E0,-5.954693908E0,3.340827713E0,7.728407841E0
4.211846875E0,-3.014093488E0,-6.317029490E0,1.957488756E0,7.267832095E0
4.221896875E0,-2.057786046E0,-6.363536489E0,1.098494185E0,6.777593196E0
4.231946875E0,-1.128783639E0,-5.778731893E0,2.146572508E0,6.267030264E0
4.241995875E0,-1.113000835E0,-5.111768655E0,3.180449113E0,6.122434663E0
4.252045875E0,-1.100957179E0,-4.098837361E0,1.623534390E0,4.544055275E0
4.262094875E0,-1.150360011E0,-2.885735410E0,1.560958073E-2,3.106612411E0
4.272144875E0,-1.285004138E0,-2.102049469E0,2.232208197E-1,2.473797716E0
4.282193875E0,-1.319317354E0,-8.796831894E-1,2.186442478E0,2.700920492E0
4.292243875E0,-1.089923629E0,1.140213484E0,4.748627912E0,5.003747331E0
4.302292875E0,-7.232561374E-1,3.016662170E0,7.219479983E0,7.857750398E0
4.312342875E0,-4.051503566E-1,4.809740086E0,8.653851099E0,9.908929577E0
4.322391875E0,-4.765754845E-1,6.045229272E0,7.089591104E0,9.329213427E0
4.332441875E0,-7.182493859E-1,6.630557778E0,5.546724901E0,8.674464580E0
4.342490875E0,-8.296239337E-1,7.141365275E0,4.424817587E0,8.441941989E0
4.352540875E0,-9.412510812E-1,7.698778004E0,3.550413264E0,8.530097930E0
4.362589875E0,-1.038274223E0,8.034660197E0,3.899003212E0,8.990884489E0
4.372639875E0,-1.248474097E0,8.329991950E0,4.526149250E0,9.562085573E0
4.382689875E0,-1.469678943E0,8.438273029E0,6.105757309E0,1.051877751E1
4.392738875E0,-1.890316235E0,8.296930624E0,5.905697749E0,1.035807024E1
4.402788875E0,-2.079068449E0,8.002362517E0,5.005202565E0,9.665008235E0
4.412837875E0,-1.997485465E0,7.732734540E0,4.196086498E0,9.021766653E0
4.422887875E0,-1.715401895E0,7.840509249E0,3.045582499E0,8.584390584E0
4.432936875E0,-1.286907407E0,8.006123446E0,2.561230437E0,8.503766499E0
4.442986875E0,-7.422840004E-1,7.952637795E0,2.688672256E0,8.427597044E0
4.453035875E0,-1.747214549E-1,7.730540079E0,2.797439238E0,8.222982658E0
4.463085875E0,3.313758174E-1,7.369972696E0,2.622948968E0,7.829825589E0
4.473134875E0,8.853310881E-1,6.570874663E0,1.526011311E0,6.803595777E0
4.483184875E0,1.642441362E0,5.104935014E0,-1.268313115E0,5.510589196E0
4.493233875E0,2.510253534E0,2.446903630E0,-6.007348670E0,6.955353925E0
4.503283875E0,3.270699717E0,-2.736714442E0,-1.065338134E1,1.147526106E1
4.513333875E0,3.427179394E0,-1.033991210E1,-1.429703635E1,1.797399759E1
4.523382875E0,1.611564555E0,-1.735653580E1,-1.109795450E1,2.066424616E1
4.533432875E0,-2.318782072E0,-1.788109420E1,-8.290335549E0,1.984540107E1
4.543481875E0,-5.910951473E0,-1.197627645E1,-9.133332138E0,1.617987333E1
4.553531875E0,-6.422665873E0,-4.796341192E0,-7.714000645E0,1.112480704E1
4.563580875E0,-4.450052708E0,8.155018115E-1,-5.356707349E0,7.011585123E0
4.573630875E0,-1.699304511E0,4.672392499E0,-2.945593357E-1,4.980527350E0
4.583679875E0,-1.255006899E-1,7.137806659E0,3.640423256E0,8.013533291E0
4.593729875E0,-4.072527230E-2,9.655448735E0,-3.589556280E0,1.030117775E1
4.603778875E0,-8.978811863E-1,1.163155736E1,-9.036913306E0,1.475686686E1
4.613828875E0,-2.298189640E0,1.093707771E1,-4.133922994E-2,1.117600347E1
4.623878875E0,-2.641504522E0,6.330621343E0,1.259519254E1,1.434200780E1
4.633927875E0,-4.795074100E0,-3.414452344E0,4.308924311E-1,5.902278265E0
4.643977875E0,-4.941020018E0,-2.427734001E1,-1.419044862E1,2.855121274E1
4.654026875E0,6.244984192E-1,-2.227671284E1,1.682972272E1,2.792635852E1
4.664076875E0,-3.661244313E0,-1.341793554E1,2.395412698E1,2.769920402E1
4.674125875E0,-7.557518045E0,-5.635945811E0,1.409205402E1,1.695482087E1
4.684175875E0,-4.718562991E0,3.010610887E0,1.872249801E0,5.902027950E0
4.694224875E0,4.457944988E-1,8.117636865E0,-5.492102551E-1,8.148398181E0
4.704274875E0,3.238155869E0,9.471568421E0,4.358486481E0,1.091753938E1
4.714323875E0,3.305584205E0,8.581819249E0,6.869285560E0,1.147874526E1
4.724373875E0,2.124047717E0,6.406905288E0,6.381038375E0,9.288577114E0
4.734422875E0,7.304024582E-1,3.649627942E0,5.013016199E0,6.243685073E0
4.744472875E0,-3.162963599E-2,6.378867888E-1,3.827684138E0,3.880601222E0
4.754522875E0,-9.158515804E-1,-3.141112554E0,4.136612713E0,5.274176422E0
4.764571875E0,-2.432274189E0,-6.824590028E0,5.645006071E0,9.184611060E0
4.774621875E0,-4.131149660E0,-9.445997377E0,6.613821877E0,1.224891439E1
4.784670875E0,-4.029606328E0,-1.054536455E1,6.009291115E0,1.278882404E1
4.794720875E0,-1.787880472E0,-8.553988257E0,3.115873632E0,9.277709856E0
4.804769875E0,8.080205914E-1,-5.416153652E0,7.640932377E-1,5.529146058E0
4.814819875E0,2.163696517E0,-2.330433526E0,-3.909506126E-1,3.203957774E0
4.824868875E0,2.839318751E0,4.238974071E-1,-1.067402201E0,3.062803852E0
4.834918875E0,3.103055074E0,2.840144670E0,-1.542038237E0,4.480318567E0
4.844963542E0,2.787724089E0,4.741117748E0,-1.695919996E0,5.755497175E0
4.855013542E0,2.097909640E0,6.182630069E0,-1.562645579E0,6.713270487E0
4.865062542E0,1.228393297E0,6.531181424E0,-1.257097571E0,6.763547530E0
4.875112542E0,4.589540961E-1,6.259950140E0,-5.186445200E-1,6.298143120E0
4.885162542E0,3.803417900E-1,5.869072545E0,-1.072455364E-1,5.882361262E0
4.895211542E0,2.451573801E-1,4.701737920E0,3.488975108E-1,4.721034959E0
4.905261542E0,4.101558656E-2,3.206621250E0,1.468763562E-1,3.210245284E0
4.915310542E0,-9.756020844E-2,2.024365116E0,-5.164516680E-1,2.091481399E0
4.925360542E0,-2.356550699E-1,1.364873450E0,-1.086389279E0,1.760299552E0
4.935409542E0,-1.888823149E-1,1.169052536E0,-1.504568110E0,1.914702472E0
4.945459542E0,2.323540244E-1,1.185884916E0,-1.884325032E0,2.238524570E0
4.955508542E0,6.620641485E-1,1.124053534E0,-2.555384683E0,2.869114177E0
4.965558542E0,9.308925194E-1,9.107599711E-1,-3.022405306E0,3.291045189E0
4.975607542E0,9.242413116E-1,3.971984357E-1,-3.111566573E0,3.270142985E0
4.985657542E0,9.164677307E-1,-8.573246062E-2,-2.815421765E0,2.962070707E0
4.995706542E0,9.950519702E-1,-4.662394345E-1,-2.316696078E0,2.564096010E0
5.005756542E0,1.237676921E0,-9.373577857E-1,-2.317487791E0,2.789486232E0
5.015806542E0,1.774371211E0,-1.741611893E0,-3.218061035E0,4.066635219E0
5.025855542E0,2.761276548E0,-2.809139809E0,-4.367585333E0,5.881472289E0
5.035905542E0,3.809824402E0,-3.816954204E0,-4.693930425E0,7.149607277E0
5.045954542E0,4.664972675E0,-4.364009761E0,-4.165092454E0,7.625912824E0
5.056004542E0,5.441827022E0,-4.192833692E0,-3.377669265E0,7.655193359E0
5.066053542E0,5.917844170E0,-3.852638007E0,-2.693481591E0,7.557681015E0
5.076103542E0,6.080130717E0,-3.815970118E0,-2.102541804E0,7.479993283E0
5.086152542E0,6.017919851E0,-4.182677078E0,-1.897631102E0,7.570412847E0
5.096202542E0,5.686439441E0,-4.839373775E0,-2.503840892E0,7.875554029E0
5.106251542E0,4.909490662E0,-5.370220850E0,-3.652049567E0,8.141242938E0
5.116301542E0,3.650703538E0,-5.631918249E0,-4.484676704E0,8.072079324E0
5.126351542E0,2.608801337E0,-5.934651992E0,-3.884714078E0,7.557575150E0
5.136400542E0,2.384688963E0,-6.703991205E0,-1.854822467E0,7.353271783E0
5.146450542E0,2.579543039E0,-7.209756648E0,3.009035647E-2,7.657384582E0
5.156499542E0,2.807597021E0,-6.617216186E0,1.063705445E0,7.266472346E0
5.166549542E0,2.546067145E0,-6.124379522E0,1.238209895E0,6.747121325E0
5.176598542E0,1.740823981E0,-5.295293459E0,4.339066708E-1,5.590963776E0
5.186648542E0,5.093348756E-1,-3.991056805E0,-1.260279479E0,4.216190318E0
5.196697542E0,-2.266931887E0,-3.432903233E0,-3.432205660E0,5.357596521E0
5.206747542E0,-4.318683022E0,-3.624718219E0,-4.016417348E0,6.922514971E0
5.216796542E0,-5.259459382E0,-4.166134720E0,-2.357665763E0,7.111763449E0
5.226846542E0,-5.625293938E0,-5.204920648E0,-1.761596141E-1,7.665909147E0
5.236895542E0,-5.415066070E0,-6.038780962E0,1.366615920E0,8.225415195E0
5.246945542E0,-4.736839340E0,-6.168477468E0,2.577617551E0,8.193404265E0
5.256995542E0,-3.740305101E0,-5.998705316E0,3.352496417E0,7.823910783E0
5.267044542E0,-2.910923754E0,-5.821232965E0,2.798988458E0,7.084812398E0
5.277094542E0,-2.114441473E0,-5.552083874E0,1.568590297E0,6.144670342E0
5.287143542E0,-1.223296571E0,-5.147110396E0,1.315298270E0,5.451532763E0
5.297193542E0,-1.176146379E0,-4.954138831E0,3.617765880E0,6.246202192E0
5.307242542E0,-1.140530111E0,-5.017610942E0,4.714659097E0,6.978913877E0
5.317292542E0,-9.811554775E-1,-4.232883026E0,2.168139378E0,4.856005884E0
5.327341542E0,-1.049265600E0,-2.953865413E0,3.718858391E-2,3.134910233E0
5.337391542E0,-1.166418658E0,-2.079402033E0,2.191013101E-1,2.394253680E0
5.347440542E0,-9.094237362E-1,-5.301763988E-1,3.436129142E0,3.593761543E0
5.357490542E0,8.012498081E-2,1.613036883E0,6.282266039E0,6.486537950E0
5.367539542E0,2.292323421E-1,3.644282418E0,6.923975737E0,7.827821013E0
5.377589542E0,-4.745030120E-2,5.087656492E0,7.177574158E0,8.797958337E0
5.387639542E0,-2.182647928E-1,6.202485459E0,6.654451840E0,9.099461230E0
5.397688542E0,-4.575474753E-1,6.951953495E0,5.078433679E0,8.621455545E0
5.407738542E0,-6.321416802E-1,7.395244946E0,4.426700976E0,8.642044460E0
5.417787542E0,-5.841842792E-1,7.546822318E0,5.669315286E0,9.457110245E0
5.427837542E0,-7.130379087E-1,7.996615874E0,6.241654787E0,1.016919579E1
5.437886542E0,-1.035756850E0,8.363970121E0,6.636558191E0,1.072719409E1
5.447936542E0,-1.420412351E0,8.611171103E0,6.134409835E0,1.066774686E1
5.457985542E0,-1.790105776E0,8.783221915E0,4.678120139E0,1.011109657E1
5.468035542E0,-2.043640755E0,8.837155463E0,3.624521168E0,9.767749889E0
5.478084542E0,-2.288504020E0,8.938348546E0,3.286932757E0,9.794654273E0
5.488134542E0,-2.430748796E0,8.970049810E0,3.624869077E0,9.975470372E0
5.498184542E0,-2.360688774E0,8.864646732E0,4.030316765E0,1.001989353E1
5.508233542E0,-2.076551808E0,8.568575891E0,3.928037269E0,9.652048331E0
5.518283542E0,-1.471023510E0,8.150139783E0,3.378894256E0,8.944585795E0
5.528332542E0,-7.717144985E-1,7.589057341E0,2.604437560E0,8.060547723E0
5.538382542E0,-8.318702146E-2,6.560031002E0,1.285609764E0,6.685336139E0
5.548431542E0,6.453326333E-1,4.900685924E0,-8.599760261E-1,5.017243815E0
5.558481542E0,1.254494683E0,2.429844963E0,-4.616923180E0,5.365993207E0
5.568530542E0,1.859252756E0,-1.946805893E0,-9.344222496E0,9.724266967E0
5.578580542E0,2.308543305E0,-9.059823282E0,-1.403304859E1,1.686227218E1
5.588629542E0,1.792893729E0,-1.765112671E1,-1.347613873E1,2.227965568E1
5.598679542E0,6.953673307E-1,-2.061518441E1,-8.761995353E0,2.241075471E1
5.608728542E0,-2.001242009E0,-1.450303609E1,-8.254750564E0,1.680725832E1
5.618778542E0,-3.259008209E0,-5.639771059E0,-7.885111810E0,1.022756767E1
5.628828542E0,-3.124400335E0,1.653879100E-1,-7.776247180E0,8.382079146E0
5.638877542E0,-2.196961181E0,4.012603794E0,-4.299897965E0,6.278276049E0
5.648927542E0,-1.698882634E0,6.218860586E0,5.421088117E-1,6.469490796E0
5.658976542E0,-3.261925970E0,6.417263045E0,-2.181516638E0,7.521997133E0
5.669026542E0,-5.615250760E0,1.984677724E0,-1.098269067E1,1.249357760E1
5.679075542E0,-4.427849661E0,-7.945339301E0,-1.005153211E1,1.355608966E1
5.689125542E0,-1.878382799E0,-1.459582322E1,2.525630249E0,1.493134909E1
5.699174542E0,-1.525814991E0,-1.459642081E1,1.098051668E1,1.832908504E1
5.709224542E0,-4.518457823E-1,-8.661817930E0,1.699460017E1,1.908003379E1
5.719273542E0,-1.270562101E0,8.549681783E-2,1.717882021E1,1.722595430E1
5.729323542E0,-4.082361077E0,5.925502269E0,5.329359922E0,8.954290942E0
5.739373542E0,-3.499712934E0,1.153281309E1,-3.657205934E0,1.259479749E1
5.749422542E0,1.630063391E0,1.494226139E1,-1.131325716E0,1.507342629E1
5.759472542E0,3.905659389E0,1.238221355E1,6.950790483E0,1.472707969E1
5.769521542E0,2.115010407E0,7.736124755E0,9.027356032E0,1.207534895E1
5.779571542E0,6.363649048E-2,3.254514039E0,8.274957957E0,8.892178609E0
5.789620542E0,-1.402057502E0,-1.003436585E0,7.838411268E0,8.025792262E0
5.799670542E0,-2.320437857E0,-5.515780851E0,6.558589078E0,8.878252133E0
5.809719542E0,-2.607337779E0,-9.768851974E0,5.825365777E0,1.166891450E1
5.819769542E0,-3.196134853E0,-1.117272635E1,7.656495034E0,1.391642944E1
5.829818542E0,-3.405684444E0,-9.398402211E0,8.107189060E0,1.287070958E1
5.839869417E0,-2.347683543E0,-6.815083040E0,5.623103571E0,9.142005722E0
5.849919417E0,-9.739708574E-1,-4.608626858E0,2.684601717E0,5.421729164E0
5.859968417E0,-3.108656122E-1,-2.368221157E0,7.664190408E-1,2.508486999E0
5.870018417E0,-1.245739062E-1,-3.119162107E-1,-5.959434684E-1,6.840752869E-1
5.880067417E0,2.797410294E-2,1.275045599E0,-1.105901365E0,1.688058547E0
5.890117417E0,2.163845475E-1,2.187824029E0,-7.849068403E-1,2.334411061E0
5.900166417E0,3.410135637E-1,2.733317209E0,-2.154979634E-1,2.762924644E0
5.910216417E0,4.478658749E-1,3.017410029E0,2.679662355E-1,3.062213747E0
5.920265417E0,7.122344282E-1,3.486353801E0,4.991639364E-1,3.593202658E0
5.930315417E0,1.243963994E0,3.657197748E0,9.673901816E-1,3.982258850E0
5.940364417E0,2.005795967E0,3.815570168E0,1.915627955E0,4.717141468E0
5.950414417E0,2.645999276E0,3.947958732E0,1.809629629E0,5.085513712E0
5.960464417E0,2.685451902E0,3.584860089E0,1.570905502E0,4.746642800E0
5.970513417E0,2.005477732E0,2.737592694E0,1.819407928E-1,3.398449226E0
5.980563417E0,1.146370602E0,1.809310956E0,-1.268903099E0,2.489555536E0
5.990612417E0,2.337295818E-1,1.269459754E0,-2.612047711E0,2.913580414E0
6.000662417E0,-3.640894541E-1,1.225382273E0,-3.732227465E0,3.945078541E0
6.010711417E0,-6.489429966E-1,1.265580711E0,-4.302444719E0,4.531429368E0
6.020761417E0,-6.875787663E-1,1.220930788E0,-4.425127198E0,4.641679358E0
6.030810417E0,-4.196900430E-1,1.327101021E0,-3.904484684E0,4.145158320E0
6.040860417E0,-1.742733389E-1,1.097304277E0,-3.122025488E0,3.313833282E0
6.050909417E0,-9.671587050E-3,5.091299307E-1,-2.491110627E0,2.542624428E0
6.060959417E0,1.987138233E-1,-3.961283952E-1,-2.138180876E0,2.183625963E0
6.071009417E0,7.144028682E-1,-1.041951025E0,-2.434214295E0,2.742523041E0
6.081058417E0,1.682422576E0,-1.381842070E0,-3.445187356E0,4.075456925E0
6.091108417E0,2.951738781E0,-1.729123410E0,-4.399810216E0,5.573236002E0
6.101157417E0,3.989413737E0,-2.159925794E0,-4.770195951E0,6.582968238E0
6.111207417E0,4.907031323E0,-2.720289028E0,-4.439745237E0,7.154737351E0
6.121256417E0,5.532488101E0,-3.364988993E0,-3.574147697E0,7.396357703E0
6.131306417E0,5.790857849E0,-3.788287060E0,-2.801795121E0,7.465601743E0
6.141355417E0,5.708333756E0,-3.956299785E0,-2.174991437E0,7.277909728E0
6.151405417E0,5.390633479E0,-4.092831101E0,-1.556093189E0,6.944898973E0
6.161454417E0,5.023382143E0,-4.143052252E0,-1.587740367E0,6.702251084E0
6.171504417E0,4.609349574E0,-4.193407304E0,-2.634496926E0,6.765452118E0
6.181553417E0,3.670824392E0,-4.379403141E0,-4.210679394E0,7.098164871E0
6.191603417E0,2.465377323E0,-4.809444802E0,-4.605344523E0,7.100566374E0
6.201653417E0,1.762243209E0,-6.096634483E0,-2.716379580E0,6.903127637E0
6.211702417E0,1.913467701E0,-7.775571241E0,-3.378439343E-1,8.014674372E0
6.221752417E0,2.618774348E0,-8.241904816E0,7.866025329E-1,8.683646563E0
6.231801417E0,2.998306006E0,-7.951856607E0,1.056341608E0,8.563744508E0
6.241851417E0,2.658651189E0,-6.492947066E0,6.834867387E-1,7.049393014E0
6.251900417E0,1.695001398E0,-4.631771307E0,-5.657359484E-1,4.964513304E0
6.261950417E0,-9.669546372E-1,-3.416531029E0,-3.329309868E0,4.867441806E0
6.271999417E0,-3.838247133E0,-3.353481672E0,-4.903242912E0,7.072465725E0
6.282049417E0,-5.254845344E0,-3.927594634E0,-3.690824500E0,7.527388969E0
6.292098417E0,-5.842655994E0,-4.789928550E0,-1.531265327E0,7.708749450E0
6.302148417E0,-5.732508484E0,-5.384739486E0,9.223748803E-2,7.865467603E0
6.312198417E0,-5.162316665E0,-5.638792820E0,1.120843413E0,7.726693198E0
6.322247417E0,-4.623236711E0,-5.817443385E0,1.922845173E0,7.675565046E0
6.332297417E0,-4.036165442E0,-5.817884849E0,2.002193059E0,7.358477603E0
6.342346417E0,-3.312831829E0,-5.824785149E0,1.861955777E0,6.954844072E0
6.352396417E0,-2.411733651E0,-5.589786721E0,2.435822572E0,6.557088255E0
6.362445417E0,-1.928941334E0,-5.647643166E0,4.259301331E0,7.332007626E0
6.372495417E0,-1.757349382E0,-5.614102952E0,4.332262888E0,7.305814844E0
6.382544417E0,-1.509165044E0,-4.869021497E0,1.950021716E0,5.457795724E0
6.392594417E0,-9.452961119E-1,-3.590897924E0,3.960757703E-3,3.713239600E0
6.402643417E0,-1.414925323E-1,-2.381826459E0,1.273536725E-1,2.389421765E0
6.412693417E0,5.386535458E-1,-6.407507551E-1,2.168166421E0,2.324146037E0
6.422743417E0,9.900091852E-1,1.372156742E0,5.475919797E0,5.731372431E0
6.432792417E0,1.381934163E0,3.780976871E0,7.582871572E0,8.585188956E0
6.442842417E0,1.186599227E0,5.627004248E0,7.105061667E0,9.140738254E0
6.452891417E0,5.276782490E-1,6.617115614E0,5.868712356E0,8.860386453E0
6.462941417E0,5.933608264E-3,7.201122649E0,4.576633818E0,8.532395896E0
6.472990417E0,-5.223708775E-1,7.757657127E0,3.538157500E0,8.542404458E0
6.483040417E0,-8.455810583E-1,8.075032883E0,4.218900872E0,9.149879122E0
6.493089417E0,-1.335358752E0,8.107140529E0,5.390276799E0,9.826698048E0
6.503139417E0,-1.724635087E0,8.332559463E0,5.965048742E0,1.039171400E1
6.513189417E0,-2.221273319E0,8.256351532E0,6.771707225E0,1.090676004E1
6.523238417E0,-2.578556029E0,8.257091205E0,5.768517977E0,1.039732206E1
6.533288417E0,-2.605430125E0,8.071315223E0,4.489152455E0,9.596191188E0
6.543337417E0,-2.554721901E0,8.043625733E0,3.019358614E0,8.963428215E0
6.553387417E0,-2.404103765E0,8.036824837E0,2.521136371E0,8.759360535E0
6.563436417E0,-2.120832187E0,7.903160411E0,3.112803259E0,8.754851099E0
6.573486417E0,-1.625171025E0,7.598692383E0,3.576950268E0,8.554290153E0
6.583535417E0,-1.095429586E0,7.245000740E0,3.375644959E0,8.067526299E0
6.593585417E0,-4.042300779E-1,6.905141271E0,2.670494140E0,7.414574625E0
6.603634417E0,5.161840482E-1,6.553085094E0,1.076199044E0,6.660898934E0
6.613684417E0,1.490890303E0,5.753580680E0,-1.447309835E0,6.117282918E0
6.623734417E0,2.483669168E0,4.145741971E0,-5.040570034E0,6.983060596E0
6.633783417E0,3.656973799E0,9.153535438E-1,-8.345550807E0,9.157485886E0
6.643833417E0,4.066638791E0,-4.119471601E0,-1.115189857E1,1.256472996E1
6.653882417E0,2.741830463E0,-1.086952249E1,-1.300721074E1,1.717124587E1
6.663932417E0,1.552833366E-1,-1.624494619E1,-1.130688604E1,1.979313168E1
6.673981417E0,-2.863624749E0,-1.490104437E1,-1.073214099E1,1.858548682E1
6.684031417E0,-4.513046517E0,-8.956636882E0,-7.972185037E0,1.281189554E1
6.694080417E0,-4.345576121E0,-3.081682624E0,-4.872408497E0,7.219498887E0
6.704130417E0,-3.053068981E0,1.728077928E0,-2.315207084E0,4.203292444E0
6.714179417E0,-2.719684134E0,4.495004348E0,-2.413145900E-3,5.253736927E0
6.724229417E0,-4.189054052E0,3.424461023E0,-3.114199575E0,6.242863617E0
6.734279417E0,-5.683850294E0,-3.732674192E0,-1.086369165E1,1.281634921E1
6.744328417E0,-4.621148086E0,-1.460156402E1,-1.192333576E1,1.940944659E1
6.754378417E0,-1.210336583E0,-2.018369498E1,-1.373950083E0,2.026657831E1
6.764427417E0,1.472873131E0,-1.309400447E1,1.592303241E1,2.066797691E1
6.774477417E0,6.401916882E-1,-8.296877414E-1,2.703533364E1,2.705563698E1
6.784526417E0,-3.851473242E0,5.659617094E0,1.656497600E1,1.792382609E1
6.794576417E0,-6.103227219E0,1.134669973E1,-3.171050298E-1,1.288788318E1
6.804625417E0,-1.375888142E0,1.801173737E1,-6.049923416E0,1.905038909E1
6.814675417E0,4.714766686E0,1.771122323E1,4.300371004E0,1.882577074E1
6.824725417E0,4.111031437E0,1.210484035E1,1.020698384E1,1.635879759E1
6.834774417E0,1.133477346E0,6.318217059E0,9.540685433E0,1.149910067E1
6.844827375E0,-7.229576370E-1,1.115151733E0,8.600000582E0,8.702082575E0
6.854876375E0,-2.200694482E0,-4.447837198E0,6.423106753E0,8.116810476E0
6.864926375E0,-3.678434835E0,-1.077231721E1,3.663970285E0,1.195819297E1
6.874975375E0,-4.321839057E0,-1.430970376E1,5.334785553E0,1.587154218E1
6.885025375E0,-5.147117997E0,-1.364634416E1,7.724625621E0,1.650410172E1
6.895074375E0,-4.707683369E0,-1.048997271E1,6.437409042E0,1.317733073E1
6.905124375E0,-2.438239518E0,-6.860343413E0,3.821906211E0,8.222912548E0
6.915173375E0,-6.399805306E-1,-3.653473071E0,1.175079993E0,3.890790865E0
6.925223375E0,5.307169738E-1,-1.229800429E0,-2.021136868E-1,1.354592022E0
6.935272375E0,9.286094740E-1,3.811946064E-1,-1.251561427E-1,1.011577453E0
6.945322375E0,1.278900961E0,1.674401658E0,2.909270453E-1,2.126933738E0
6.955372375E0,1.803854627E0,2.839980363E0,7.854927313E-1,3.454906483E0
6.965421375E0,2.121614983E0,3.638909411E0,8.460663772E-1,4.296363597E0
6.975471375E0,2.395396823E0,4.248068830E0,4.856200308E-1,4.901004135E0
6.985520375E0,2.797914909E0,4.742281344E0,2.468804815E-1,5.511670360E0
6.995570375E0,2.896981360E0,4.565315947E0,2.825771483E-1,5.414283013E0
7.005619375E0,3.020633599E0,4.300241196E0,7.311884701E-1,5.305745778E0
7.015669375E0,3.050432180E0,4.165901417E0,5.148830062E-1,5.188928175E0
7.025718375E0,2.730937393E0,3.765243768E0,-4.965410216E-1,4.677780741E0
7.035768375E0,1.852817164E0,2.926444895E0,-1.740347725E0,3.876315438E0
7.045818375E0,5.859987433E-1,2.134893864E0,-2.344554113E0,3.224608554E0
7.055867375E0,-5.453858837E-1,1.766258492E0,-2.783300963E0,3.341239152E0
7.065917375E0,-1.020380647E0,1.875885599E0,-2.399860733E0,3.212390852E0
7.075966375E0,-1.248229391E0,2.059485247E0,-1.852241798E0,3.038150058E0
7.086016375E0,-1.267171008E0,2.382692431E0,-1.857960521E0,3.276425321E0
7.096065375E0,-1.173119567E0,2.318261962E0,-2.716529853E0,3.759000198E0
7.106115375E0,-8.399817646E-1,1.618562502E0,-4.007191027E0,4.402600807E0
7.116164375E0,-7.831848353E-2,5.214652169E-1,-5.025782425E0,5.053370038E0
7.126214375E0,9.630560061E-1,2.285208821E-2,-4.957227330E0,5.049960583E0
7.136263375E0,1.951805847E0,-1.931791413E-1,-3.716491731E0,4.202282122E0
7.146313375E0,2.776831311E0,-8.819636035E-1,-2.361213562E0,3.750197516E0
7.156363375E0,3.582005771E0,-1.907016175E0,-1.786940971E0,4.434031356E0
7.166412375E0,4.201848344E0,-2.979568604E0,-2.399400850E0,5.682471558E0
7.176462375E0,4.624238047E0,-3.632570445E0,-3.650454446E0,6.921341143E0
7.186511375E0,5.027092202E0,-3.777432874E0,-4.012383939E0,7.459214436E0
7.196561375E0,5.551559964E0,-3.972289581E0,-3.008436015E0,7.459865267E0
7.206610375E0,6.114883643E0,-4.372829116E0,-1.757917731E0,7.720343982E0
7.216660375E0,6.502973287E0,-4.636167828E0,-1.611745526E0,8.147419060E0
7.226709375E0,6.397487762E0,-4.741831693E0,-2.778964376E0,8.434184043E0
7.236759375E0,5.735885836E0,-4.654356177E0,-4.000403871E0,8.400395757E0
7.246808375E0,4.646739302E0,-4.634175682E0,-4.425661925E0,7.915444010E0
7.256858375E0,3.840196302E0,-5.009914252E0,-3.349368156E0,7.145950986E0
7.266908375E0,3.601001620E0,-6.030199004E0,-1.222819146E0,7.129221511E0
7.276957375E0,3.722148619E0,-6.610411196E0,8.564159489E-1,7.634485890E0
7.287007375E0,3.438250512E0,-6.857765960E0,1.724860497E0,7.862929752E0
7.297056375E0,2.422815148E0,-7.227901728E0,3.397591898E-1,7.630729515E0
7.307106375E0,1.426170396E0,-6.506422559E0,-1.710662581E0,6.877053365E0
7.317155375E0,-2.726366624E-1,-4.664896953E0,-3.967506559E0,6.129983901E0
7.327205375E0,-3.180915428E0,-3.145092754E0,-5.628171353E0,7.189307628E0
7.337254375E0,-5.246404889E0,-3.169823552E0,-4.465888723E0,7.583977037E0
7.347304375E0,-6.408883401E0,-4.847632967E0,-1.466263000E0,8.168430633E0
7.357354375E0,-6.734579744E0,-6.526375598E0,4.541584291E-1,9.389057602E0
7.367403375E0,-6.349096205E0,-7.265018683E0,1.281176405E0,9.733084407E0
7.377453375E0,-5.852754720E0,-7.652008465E0,1.419399320E0,9.737693042E0
7.387502375E0,-5.380058205E0,-8.191716410E0,1.023005462E0,9.853719308E0
7.397552375E0,-4.627993421E0,-8.690201485E0,-1.330580517E-1,9.846604968E0
7.407601375E0,-3.791413274E0,-8.864578904E0,-1.266073047E0,9.724120254E0
7.417651375E0,-2.797941806E0,-8.311471480E0,-1.341507976E0,8.871791260E0
7.427700375E0,-2.041190186E0,-7.263074484E0,1.089674245E0,7.622735618E0
7.437750375E0,-1.955240502E0,-6.481762512E0,4.718245779E0,8.252154501E0
7.447799375E0,-1.306937191E0,-5.245636564E0,3.846279745E0,6.634655655E0
7.457849375E0,-1.622391113E-1,-3.705277648E0,9.047876982E-1,3.817596725E0
7.467899375E0,5.790480119E-1,-2.585929953E0,7.404796958E-1,2.751479693E0
7.477948375E0,9.540260779E-1,-1.040399759E0,3.409724286E0,3.690368155E0
7.487998375E0,9.450921902E-1,1.214209998E0,6.645865788E0,6.821659420E0
7.498047375E0,1.835654965E-1,3.302678724E0,8.867800720E0,9.464632727E0
7.508097375E0,-6.707531109E-1,4.952410394E0,8.951063901E0,1.025172295E1
7.518146375E0,-1.833497964E0,6.106878805E0,7.270176512E0,9.670116341E0
7.528196375E0,-2.781002423E0,7.135106415E0,5.553693613E0,9.459769066E0
7.538245375E0,-3.457877861E0,7.860601451E0,4.495626200E0,9.693122789E0
7.548295375E0,-3.895110720E0,8.582271239E0,4.127811484E0,1.028912507E1
7.558345375E0,-4.115727921E0,9.426052524E0,4.155245158E0,1.109304939E1
7.568394375E0,-4.086386593E0,1.017295071E1,4.384609209E0,1.180729772E1
7.578444375E0,-3.376524087E0,1.068433766E1,5.645502500E0,1.254701896E1
7.588493375E0,-2.352102138E0,1.077588518E1,5.950728326E0,1.253248792E1
7.598543375E0,-1.586342005E0,9.932566996E0,5.282008000E0,1.136098484E1
7.608592375E0,-1.475017159E0,9.148730780E0,3.423987399E0,9.879202408E0
7.618642375E0,-1.638392749E0,8.779130618E0,3.260962056E0,9.507435971E0
7.628691375E0,-1.661133156E0,8.649383242E0,3.613121436E0,9.519760519E0
7.638741375E0,-1.221337169E0,8.438671224E0,3.756851844E0,9.317551840E0
7.648791375E0,-3.476964927E-1,7.931541041E0,3.325201906E0,8.607392396E0
7.658840375E0,4.925717854E-1,7.172063157E0,1.487881325E0,7.341315123E0
7.668890375E0,1.454300327E0,5.788154097E0,-1.083499001E0,6.065615169E0
7.678939375E0,2.131912369E0,3.913546114E0,-5.905249853E0,7.398166621E0
7.688989375E0,2.276562397E0,8.631414163E-1,-1.127773299E1,1.153754787E1
7.699038375E0,1.571712272E0,-4.169220296E0,-1.599735053E1,1.660626090E1
7.709088375E0,-2.677035128E-1,-9.866736703E0,-1.366996106E1,1.686096064E1
7.719137375E0,-1.999308043E0,-1.436114990E1,-8.844800697E0,1.698441516E1
7.729187375E0,-3.833902651E0,-1.425607192E1,-6.544466883E0,1.614820247E1
7.739236375E0,-4.199383158E0,-9.171675255E0,-5.195637608E0,1.134676588E1
7.749286375E0,-2.401144636E0,-3.819993587E0,-4.226741403E0,6.182490554E0
7.759336375E0,-8.503700741E-1,2.679989433E-1,-3.052072324E0,3.179638056E0
7.769385375E0,1.528574730E-1,3.513220003E0,3.474760526E-1,3.533669453E0
7.779435375E0,-1.814218524E-1,6.548903165E0,-2.067130482E0,6.869794392E0
7.789484375E0,-6.917937317E-1,8.044277113E0,-1.251700825E1,1.489511559E1
7.799534375E0,-1.278702302E0,4.859048486E0,-1.355990828E1,1.446086250E1
7.809583375E0,-6.640866273E-1,-1.417623521E0,7.002406195E0,7.175260275E0
7.819633375E0,-2.157233151E0,-9.041025653E0,1.160658040E1,1.486965058E1
7.829682375E0,-6.646988454E0,-2.818312570E1,-6.166265466E0,2.960563898E1
7.839732875E0,-3.148708087E0,-2.184094792E1,1.218083311E1,2.520543719E1
7.849782875E0,-6.632977356E0,-5.420647237E0,1.924446491E1,2.106488155E1
7.859831875E0,-8.567746755E0,4.494306775E0,9.157783440E0,1.332178950E1
7.869881875E0,-3.486949047E0,1.307523725E1,-1.223137819E0,1.358737314E1
7.879930875E0,2.705614856E0,1.633789938E1,8.003402737E-1,1.657974223E1
7.889980875E0,4.355395058E0,1.389915437E1,8.354598788E0,1.679152403E1
7.900029875E0,2.509898315E0,9.708969469E0,9.377963269E0,1.372988976E1
7.910079875E0,-3.886870824E-2,5.091968229E0,7.352631608E0,8.943759992E0
7.920128875E0,-6.821191480E-1,8.776267236E-1,6.117689137E0,6.217848147E0
7.930178875E0,-7.725717004E-1,-2.932328948E0,5.209227122E0,6.027558984E0
7.940228875E0,-1.872274944E0,-7.359983312E0,4.773539389E0,8.970030442E0
7.950277875E0,-3.165006616E0,-1.081382426E1,5.848626001E0,1.269497885E1
7.960327875E0,-4.801801322E0,-1.158422766E1,6.775175793E0,1.425323239E1
7.970376875E0,-6.042812617E0,-1.112266717E1,5.522822653E0,1.381053509E1
7.980426875E0,-4.693237238E0,-9.204250678E0,3.421918069E0,1.088366802E1
7.990475875E0,-2.432077576E0,-5.188878227E0,8.605967811E-1,5.794832647E0
8.000525875E0,-5.150892667E-1,-1.382194072E0,-1.048868939E0,1.809945705E0
8.010574875E0,9.708608696E-1,1.469846174E0,-1.793404191E0,2.513825211E0
8.020624875E0,1.670717766E0,3.343960066E0,-7.448358715E-1,3.811580676E0
8.030673875E0,1.912879325E0,4.480005655E0,7.535213256E-1,4.929234461E0
8.040723875E0,1.926751551E0,5.158486739E0,1.206417999E0,5.637180267E0
8.050773875E0,2.136473197E0,5.395228806E0,1.135956711E0,5.912986491E0
8.060822875E0,2.658233113E0,5.372263867E0,1.149644531E0,6.103204477E0
8.070872875E0,3.182413485E0,4.992134623E0,1.522873988E0,6.112962364E0
8.080921875E0,3.472025784E0,4.254449896E0,2.516431702E0,6.040507882E0
8.090971875E0,3.355517673E0,3.195342556E0,2.926883436E0,5.480543728E0
8.101020875E0,3.083124547E0,1.832492242E0,2.059440954E0,4.135816949E0
8.111070875E0,2.983917763E0,1.055600765E0,1.191968067E-1,3.167375265E0
8.121119875E0,2.710491434E0,7.974836165E-1,-2.183868826E0,3.570998037E0
8.131169875E0,1.828336334E0,6.878360438E-1,-3.283879341E0,3.820967901E0
8.141219875E0,8.936568654E-1,7.876790053E-1,-3.585071173E0,3.777803082E0
8.151268875E0,6.967893004E-2,8.943146771E-1,-3.809777917E0,3.913957290E0
8.161318875E0,-7.276263463E-1,8.022637153E-1,-3.628823549E0,3.787007726E0
8.171367875E0,-1.330251794E0,4.532276255E-1,-3.197333240E0,3.492552786E0
8.181417875E0,-1.780384488E0,1.135693002E-1,-2.683002211E0,3.221981964E0
8.191466875E0,-1.641474524E0,-1.202006274E-1,-2.176993524E0,2.729136788E0
8.201516875E0,-6.992825532E-1,-2.884963578E-1,-2.610506093E0,2.717897772E0
8.211565875E0,9.721940348E-1,-1.062433822E0,-3.923668814E0,4.179605702E0
8.221615875E0,2.904865161E0,-2.751225477E0,-4.959386122E0,6.372047861E0
8.231665875E0,4.435582019E0,-4.375794824E0,-5.083827735E0,8.041596398E0
8.241714875E0,5.381610056E0,-5.181558098E0,-4.560272723E0,8.752505837E0
8.251764875E0,5.820464641E0,-5.221634914E0,-3.485029114E0,8.560882416E0
8.261813875E0,5.919276738E0,-5.287561685E0,-2.422620728E0,8.298508111E0
8.271863875E0,6.008837956E0,-5.591033932E0,-2.460610965E0,8.568570495E0
8.281912875E0,5.897398796E0,-5.727697980E0,-3.071898185E0,8.776240378E0
8.291962875E0,5.316617085E0,-5.706969600E0,-3.541860834E0,8.566253406E0
8.302011875E0,4.229025325E0,-5.641253328E0,-4.222364762E0,8.218075109E0
8.312061875E0,3.397522901E0,-5.470243320E0,-4.403596872E0,7.801178710E0
8.322110875E0,3.553725420E0,-5.337529067E0,-2.119232681E0,6.753467854E0
8.332160875E0,4.057715063E0,-6.253758523E0,8.553099480E-1,7.503739222E0
8.342210875E0,4.524236918E0,-6.551684686E0,1.468570603E0,8.096294926E0
8.352259875E0,4.578970073E0,-6.407288280E0,1.142040447E0,7.957673430E0
8.362309875E0,3.653780050E0,-5.713874577E0,4.244012909E-1,6.795482896E0
8.372358875E0,2.019555489E0,-4.675372825E0,-7.379058976E-1,5.146087886E0
8.382408875E0,-3.452953336E-1,-3.798530213E0,-2.309271429E0,4.458788533E0
8.392457875E0,-2.385846127E0,-3.561434973E0,-2.528578708E0,4.976925868E0
8.402507875E0,-3.793915590E0,-4.016135513E0,-2.112602524E0,5.914915839E0
8.412556875E0,-4.508984164E0,-4.543174880E0,-1.606811353E0,6.599486261E0
8.422606875E0,-4.645496769E0,-4.912957476E0,-9.052858078E-1,6.821827745E0
8.432656875E0,-4.357412640E0,-5.037778573E0,2.481032073E-1,6.665419196E0
8.442705875E0,-3.950962155E0,-5.158330618E0,1.779310062E0,6.736796049E0
8.452755875E0,-3.416237499E0,-5.259521948E0,2.897183089E0,6.908467241E0
8.462804875E0,-2.664082375E0,-5.318996317E0,3.140513799E0,6.726952032E0
8.472854875E0,-1.555161143E0,-5.373570719E0,3.005029135E0,6.350117208E0
8.482903875E0,-7.861653073E-1,-5.161807373E0,3.414073445E0,6.238446019E0
8.492953875E0,-6.820389681E-1,-5.055665206E0,4.828924216E0,7.024488374E0
8.503002875E0,-4.248187821E-1,-5.127117012E0,4.024950775E0,6.532076897E0
8.513052875E0,-2.235323301E-1,-4.527061708E0,1.268176875E0,4.706647108E0
8.523102875E0,-1.556405284E-1,-3.393131642E0,-3.036597960E-1,3.410245678E0
8.533151875E0,-4.806048008E-1,-2.415432161E0,9.981221969E-1,2.657356096E0
8.543201875E0,-8.258563533E-1,-8.038091344E-1,4.966536098E0,5.098492782E0
8.553250875E0,-5.867648382E-1,1.347240002E0,7.575859591E0,7.717058840E0
8.563300875E0,-7.197544592E-1,3.398883548E0,8.249040173E0,8.950816702E0
8.573349875E0,-1.149752047E0,5.013869893E0,7.930337684E0,9.452569855E0
8.583399875E0,-1.720940816E0,6.179992390E0,6.246120890E0,8.953656762E0
8.593448875E0,-2.225509919E0,7.049252332E0,4.783591923E0,8.804976123E0
8.603498875E0,-2.497964441E0,7.722952732E0,3.994270434E0,9.046436954E0
8.613548875E0,-2.670768082E0,8.093480848E0,4.167413799E0,9.487084492E0
8.623597875E0,-2.848557644E0,8.643112687E0,4.501422252E0,1.015285575E1
8.633647875E0,-2.842207568E0,9.364042218E0,4.746533439E0,1.087625902E1
8.643696875E0,-2.900971208E0,9.829895736E0,4.201129137E0,1.107664074E1
8.653746875E0,-2.610413707E0,9.499684172E0,4.707874573E0,1.091889839E1
8.663795875E0,-2.447416723E0,8.844837534E0,4.126442651E0,1.006223278E1
8.673845875E0,-2.419365291E0,8.297167436E0,2.969534782E0,9.138624223E0
8.683894875E0,-2.194255089E0,7.902986748E0,3.157475695E0,8.788720482E0
8.693944875E0,-1.871475337E0,7.544767606E0,3.796425507E0,8.650941267E0
8.703994875E0,-1.277911612E0,7.106960843E0,3.883925874E0,8.199196954E0
8.714043875E0,-5.559418622E-1,6.534088075E0,3.545227953E0,7.454664283E0
8.724093875E0,7.175589759E-2,5.699807931E0,2.744924225E0,6.326734415E0
8.734142875E0,5.382177821E-1,4.477470303E0,1.120979068E0,4.646935847E0
8.744192875E0,1.052364331E0,2.620277082E0,-1.688215120E0,3.289892546E0
8.754241875E0,1.318445680E0,-5.438992292E-1,-6.390616114E0,6.547831679E0
8.764291875E0,1.587957737E0,-5.778046600E0,-1.094602980E1,1.247890222E1
8.774340875E0,1.995473731E0,-1.213612881E1,-1.433300023E1,1.888656754E1
8.784390875E0,2.011898852E0,-1.718604737E1,-1.532913774E1,2.311688614E1
8.794440875E0,7.783717728E-1,-1.653275083E1,-1.246265955E1,2.071848439E1
8.804489875E0,-4.162907642E-1,-9.868852226E0,-8.560793247E0,1.307114086E1
8.814539875E0,2.315748098E-1,-3.280387968E0,-4.780762455E0,5.802608186E0
8.824588875E0,1.258661701E0,1.324741670E0,-2.253187714E0,2.901038546E0
8.834638875E0,7.124681707E-1,4.097256859E0,1.033973669E0,4.285350185E0
8.844687125E0,-4.081425961E-1,5.691570958E0,3.626729077E0,6.761192509E0
8.854737125E0,-2.157819919E0,7.382696822E0,-1.841475320E-1,7.693783821E0
8.864786125E0,-4.952626156E0,6.907585992E0,-2.746565538E0,8.932349765E0
8.874836125E0,-7.713336402E0,3.141201432E0,3.276125348E0,8.949620225E0
8.884886125E0,-8.712584041E0,-6.157790512E-1,4.806142587E0,9.969318486E0
8.894935125E0,-1.072824908E1,-8.188496933E0,-8.062352026E0,1.572095196E1
8.904985125E0,-5.494544349E0,-1.782950538E1,-3.906050568E0,1.906144042E1
8.915034125E0,-4.221620996E-1,-1.053163529E1,1.816629331E1,2.100256592E1
8.925084125E0,-2.980087836E0,-2.362323655E0,1.742499734E1,1.783513468E1
8.935133125E0,-3.612529698E0,3.220361622E0,6.323998786E0,7.963294572E0
8.945183125E0,-1.024368521E0,7.119833488E0,1.648467502E-1,7.195035386E0
8.955232125E0,1.707831067E0,8.102894281E0,3.917078125E0,9.160626818E0
8.965282125E0,1.730918651E0,6.857996340E0,7.214630302E0,1.010341940E1
8.975332125E0,7.281801508E-1,4.700656185E0,7.415379249E0,8.809895817E0
8.985381125E0,2.249047447E-1,2.287875152E0,6.487054242E0,6.882356253E0
8.995431125E0,1.176573079E-1,-5.469228244E-1,5.665580084E0,5.693133189E0
9.005480125E0,-8.119480200E-2,-3.620754976E0,5.125774491E0,6.276147172E0
9.015530125E0,-2.361943294E-1,-5.948412829E0,4.739245470E0,7.609195133E0
9.025579125E0,-5.423886010E-1,-6.861160269E0,4.573052398E0,8.263323415E0
9.035629125E0,-1.199024487E0,-6.946543651E0,3.939988393E0,8.075619911E0
9.045678125E0,-1.533293433E0,-6.408784583E0,2.374398741E0,7.004375629E0
9.055728125E0,-1.002510825E0,-5.120999070E0,7.111710390E-1,5.266443171E0
9.065777125E0,2.163116035E-1,-2.712759569E0,-1.997443950E-1,2.728690714E0
9.075827125E0,1.367507036E0,8.260946274E-3,-3.100392544E-1,1.402236811E0
9.085877125E0,1.752375448E0,1.858060947E0,5.233240467E-1,2.607120682E0
9.095926125E0,1.530707356E0,2.966372607E0,1.389862695E0,3.615819377E0
9.105976125E0,1.034498749E0,4.118627847E0,1.142151105E0,4.397475657E0
9.116025125E0,9.785713005E-1,5.029457400E0,4.960725135E-1,5.147730711E0
9.126075125E0,1.575020626E0,5.141849656E0,5.181685567E-1,5.402574064E0
9.136124125E0,2.046666689E0,4.581729081E0,8.398683286E-1,5.087874283E0
9.146174125E0,2.114493659E0,3.478714998E0,1.204476065E0,4.245386209E0
9.156224125E0,1.718189409E0,2.248366685E0,5.446821713E-1,2.881667271E0
9.166273125E0,1.248266229E0,1.575612364E0,-6.431703329E-1,2.110542816E0
9.176323125E0,6.023705086E-1,1.216591569E0,-1.814337807E0,2.266002417E0
9.186372125E0,1.828333703E-1,1.176271509E0,-2.134386325E0,2.443900098E0
9.196422125E0,2.362956324E-1,1.323259985E0,-2.331256814E0,2.691024145E0
9.206471125E0,3.558133051E-1,1.251591833E0,-2.280525786E0,2.625620514E0
9.216521125E0,3.730460729E-1,1.025711553E0,-2.039232977E0,2.312945892E0
9.226570125E0,2.712920952E-1,1.186803514E0,-2.106726072E0,2.433186537E0
9.236620125E0,1.540044044E-1,1.431659762E0,-2.545494118E0,2.924535405E0
9.246670125E0,1.511003847E-1,1.232225270E0,-2.647917748E0,2.924496340E0
9.256719125E0,2.650841063E-1,3.479853451E-1,-2.365479690E0,2.405588815E0
9.266769125E0,7.484965208E-1,-1.005943286E0,-2.081526327E0,2.430004277E0
9.276818125E0,1.799193226E0,-2.354166790E0,-2.481094054E0,3.864586038E0
9.286868125E0,3.087424882E0,-3.694497136E0,-3.679171292E0,6.059521671E0
9.296917125E0,4.145564216E0,-4.840698754E0,-5.260368040E0,8.263748484E0
9.306967125E0,4.809201265E0,-5.464902474E0,-6.136539391E0,9.521065673E0
9.317016125E0,5.033242303E0,-5.492903620E0,-5.494842557E0,9.257365337E0
9.327066125E0,4.929049598E0,-5.272210990E0,-3.857486226E0,8.183638473E0
9.337116125E0,4.614936881E0,-4.861587347E0,-2.119489667E0,7.030285229E0
9.347165125E0,4.173618279E0,-4.298178298E0,-1.164355761E0,6.103208219E0
9.357215125E0,3.604161748E0,-4.277581481E0,-1.856411740E0,5.893551542E0
9.367264125E0,2.859085848E0,-4.728971327E0,-3.884690105E0,6.754876676E0
9.377314125E0,1.912102084E0,-5.268436612E0,-5.965556281E0,8.185378455E0
9.387363125E0,1.254456091E0,-5.779921217E0,-6.373950965E0,8.695309095E0
9.397413125E0,1.599360246E0,-5.933814086E0,-4.342649882E0,7.525072146E0
9.407462125E0,2.675396445E0,-5.692224092E0,-1.432792660E0,6.450740737E0
9.417512125E0,3.597361144E0,-5.125932950E0,5.277667612E-2,6.262505983E0
9.427562125E0,4.239343322E0,-4.953376939E0,2.871985683E-1,6.526136523E0
9.437611125E0,4.421910937E0,-4.799632004E0,7.050343131E-1,6.564056451E0
9.447661125E0,3.863213574E0,-4.041304268E0,8.165671742E-1,5.650074447E0
9.457710125E0,2.880754167E0,-3.181444309E0,-1.731518430E-1,4.295382873E0
9.467760125E0,1.071742881E0,-2.421582263E0,-2.044898783E0,3.345789068E0
9.477809125E0,-1.042550949E0,-2.162757601E0,-2.647420442E0,3.573970889E0
9.487859125E0,-2.327961616E0,-2.773030913E0,-1.651117460E0,3.979358566E0
9.497908125E0,-3.202398975E0,-3.700643145E0,-2.313047415E-1,4.899349015E0
9.507958125E0,-3.993810259E0,-4.455440918E0,8.130272698E-1,6.038417632E0
9.518008125E0,-4.369045090E0,-4.965994061E0,1.484126244E0,6.778811306E0
9.528057125E0,-4.400558074E0,-5.492276214E0,2.010227133E0,7.319222807E0
9.538107125E0,-4.097891574E0,-5.973724256E0,2.014989105E0,7.519193969E0
9.548156125E0,-3.609600828E0,-6.612795691E0,2.902217250E0,8.073484375E0
9.558206125E0,-2.866152501E0,-7.183969842E0,4.070354404E0,8.740253877E0
9.568255125E0,-2.110122866E0,-7.067068799E0,3.409866958E0,8.125470607E0
9.578305125E0,-1.506482196E0,-6.157205790E0,1.843089151E0,6.601336938E0
9.588354125E0,-9.423844908E-1,-4.308705626E0,1.489721444E-1,4.413074370E0
9.598404125E0,-6.571152113E-1,-3.016774437E0,4.675345927E-2,3.087865653E0
9.608454125E0,-5.643006762E-1,-1.720593492E0,2.673270983E0,3.228816341E0
9.618503125E0,-1.371409614E-1,3.547482347E-1,6.395855219E0,6.407153654E0
9.628553125E0,2.019514631E-1,2.668661622E0,7.687630287E0,8.140159623E0
9.638602125E0,4.375847887E-2,4.534956619E0,7.660723740E0,8.902495973E0
9.648652125E0,-4.366802976E-1,5.720522861E0,6.459686934E0,8.639596447E0
9.658701125E0,-1.133035735E0,6.466569107E0,5.099101832E0,8.312708673E0
9.668751125E0,-1.697747543E0,6.931872987E0,3.897628824E0,8.131710784E0
9.678801125E0,-2.083681026E0,7.254855638E0,3.132548722E0,8.172363087E0
9.688850125E0,-2.184078303E0,7.488555983E0,3.426462233E0,8.519936161E0
9.698900125E0,-2.327540908E0,7.856527112E0,4.442891331E0,9.321037942E0
9.708949125E0,-2.599548410E0,8.141060811E0,4.589632178E0,9.700476617E0
9.718999125E0,-2.509974914E0,8.251080852E0,4.574282360E0,9.762395628E0
9.729048125E0,-2.153708742E0,7.791911286E0,5.297806592E0,9.665355530E0
9.739098125E0,-2.051673075E0,7.536334752E0,4.407855984E0,8.968550511E0
9.749147125E0,-2.217964379E0,7.467574419E0,3.382990816E0,8.492859386E0
9.759197125E0,-2.238226444E0,7.505545068E0,3.523620153E0,8.588292226E0
9.769246125E0,-1.974929539E0,7.387164094E0,4.057162501E0,8.656275620E0
9.779296125E0,-1.473575235E0,7.028707556E0,4.062958846E0,8.251168915E0
9.789346125E0,-8.760441747E-1,6.645494490E0,3.308635575E0,7.475099985E0
9.799395125E0,-1.564548446E-1,6.328025764E0,1.982206691E0,6.633063512E0
9.809445125E0,7.555470935E-1,5.811391516E0,2.405193686E-1,5.865234210E0
9.819494125E0,1.755634101E0,4.555560452E0,-2.556692705E0,5.511085167E0
9.829544125E0,2.895593524E0,1.514043522E0,-6.733847088E0,7.484750246E0
9.839593125E0,3.994090925E0,-3.571750047E0,-1.066568388E1,1.193595297E1
9.849643250E0,4.242931758E0,-1.013226695E1,-1.387854294E1,1.769969654E1
9.859693250E0,3.295790412E0,-1.662960762E1,-1.190978192E1,2.071832496E1
9.869742250E0,5.270118126E-1,-1.720425677E1,-9.036963592E0,1.944044504E1
9.879792250E0,-2.107000306E0,-1.093234732E1,-7.749682109E0,1.356514803E1
9.889841250E0,-2.878731616E0,-4.681393118E0,-6.115535608E0,8.222062576E0
9.899891250E0,-2.824090847E0,4.205083609E-2,-4.173475315E0,5.039360435E0
9.909940250E0,-2.247309070E0,3.628946341E0,-8.633811522E-1,4.354891114E0
9.919990250E0,-2.547619581E0,5.374419735E0,4.650799316E-1,5.965823695E0
9.930039250E0,-5.006780144E0,3.492723758E0,-5.691696673E0,8.346399084E0
9.940089250E0,-6.029095050E0,-2.937286803E0,-7.640423961E0,1.016630312E1
9.950139250E0,-3.556517757E0,-7.809923049E0,1.609921487E0,8.731297944E0
9.960188250E0,-2.081009140E0,-8.551431270E0,7.600750018E0,1.162879945E1
9.970238250E0,-2.277162175E0,-8.839025987E0,8.029441558E0,1.215671747E1
9.980287250E0,-2.228215133E0,-3.250480045E0,1.399432599E1,1.453862866E1
9.990337250E0,-4.057610983E0,3.405156441E0,9.747986770E0,1.109425722E1
1.000038625E1,-3.849226742E0,8.819814375E0,2.824948341E0,1.002925746E1
1.001043625E1,-5.568128049E-2,1.261805047E1,4.456993353E-1,1.262604237E1
1.002048625E1,2.812871794E0,1.134873807E1,5.218579159E0,1.280389284E1
1.003053525E1,1.833136313E0,6.933297368E0,8.692906991E0,1.126932265E1
1.004058525E1,3.559993196E-2,2.665154462E0,8.382318099E0,8.795883831E0
1.005063425E1,-5.121101104E-1,-7.672804087E-1,7.264694747E0,7.323029821E0
1.006068425E1,-1.058738381E0,-4.553117486E0,6.235330439E0,7.793019407E0
1.007073325E1,-1.606202073E0,-7.925636523E0,5.478742833E0,9.767918019E0
1.008078325E1,-1.314744393E0,-8.913554013E0,5.955660453E0,1.080045783E1
1.009083225E1,-1.180054073E0,-8.153469188E0,5.993700099E0,1.018803358E1
1.010088225E1,-1.245988007E0,-6.862508637E0,4.248502693E0,8.166779416E0
1.011093225E1,-5.563414463E-1,-5.339674995E0,1.606937799E0,5.603917732E0
1.012098125E1,1.101233167E-1,-3.189671341E0,-5.837321433E-1,3.244514390E0
1.013103125E1,6.844990379E-1,-1.259333546E0,-1.031517838E0,1.765924394E0
1.014108025E1,1.502031587E0,2.178912288E-1,-1.854456139E-1,1.529040730E0
1.015113025E1,1.844390449E0,1.598903579E0,8.119455349E-1,2.572454924E0
1.016117925E1,2.217221198E0,2.650803056E0,1.601678667E0,3.808963276E0
1.017122925E1,2.419296147E0,3.583491256E0,1.437345010E0,4.556354256E0
1.018127825E1,2.577739758E0,4.130231062E0,8.943889368E-1,4.950099237E0
1.019132825E1,2.910926970E0,4.419298693E0,3.157649211E-1,5.301264401E0
1.020137825E1,2.934891198E0,4.010053239E0,1.157848102E-1,4.970665896E0
1.021142725E1,2.312697021E0,3.283807420E0,1.099189565E-1,4.017964766E0
1.022147725E1,1.587333985E0,2.660808812E0,-1.309957570E-1,3.101079264E0
1.023152625E1,1.032113670E0,2.353390864E0,-1.202117372E0,2.837039542E0
1.024157625E1,1.659461729E-1,1.884759334E0,-1.981795485E0,2.739957887E0
1.025162525E1,-8.268185127E-1,1.308314502E0,-2.298810614E0,2.771253494E0
1.026167525E1,-1.530417627E0,8.784529352E-1,-2.346496851E0,2.935967497E0
1.027172525E1,-1.542868834E0,7.047953081E-1,-2.205788430E0,2.782567746E0
1.028177425E1,-1.140049177E0,8.696826965E-1,-2.066233811E0,2.515031268E0
1.029182425E1,-8.265105106E-1,1.086515579E0,-2.345714201E0,2.714039580E0
1.030187325E1,-7.090550047E-1,1.182420441E0,-2.941125500E0,3.248245111E0
1.031192325E1,-5.194441268E-1,9.707155663E-1,-3.301374210E0,3.480112439E0
1.032197225E1,-1.714267682E-1,4.872478956E-1,-3.479119918E0,3.517253624E0
1.033202225E1,5.739349142E-1,-8.288077354E-2,-3.446079349E0,3.494529065E0
1.034207125E1,1.767696030E0,-9.729310763E-1,-3.294335917E0,3.863158457E0
1.035212125E1,3.185340016E0,-2.197086604E0,-2.964333683E0,4.874510719E0
1.036217125E1,4.398524120E0,-3.425229347E0,-2.741630781E0,6.212547775E0
1.037222025E1,5.346553659E0,-4.564565749E0,-3.336206074E0,7.781463068E0
1.038227025E1,6.218089339E0,-5.085103598E0,-4.238427941E0,9.082245594E0
1.039231925E1,6.743267537E0,-4.871295480E0,-4.593271193E0,9.502595276E0
1.040236925E1,6.579153736E0,-4.404553769E0,-4.704913835E0,9.209862756E0
1.041241825E1,5.454986765E0,-4.213182002E0,-3.943046194E0,7.940742817E0
1.042246825E1,3.880172546E0,-4.475829574E0,-2.733945200E0,6.524051327E0
1.043251825E1,2.738806576E0,-4.594847894E0,-2.234032820E0,5.796946720E0
1.044256725E1,2.208265311E0,-4.535864691E0,-2.447466132E0,5.607191333E0
1.045261725E1,2.163699295E0,-5.342238999E0,-2.252352439E0,6.188231062E0
1.046266625E1,2.624462812E0,-6.792822690E0,-1.347209304E0,7.405755738E0
1.047271625E1,3.311993631E0,-7.241992933E0,-5.327012265E-1,7.981198785E0
1.048276525E1,3.800849218E0,-6.847776577E0,2.258720934E-1,7.835146267E0
1.049281525E1,3.808470187E0,-5.789825816E0,3.666449797E-1,6.939809556E0
1.050286425E1,2.981202316E0,-3.885901648E0,-7.542703539E-1,4.955474007E0
1.051291425E1,1.776337337E-1,-2.241149467E0,-2.977938985E0,3.731276628E0
1.052296425E1,-2.857003947E0,-2.191742249E0,-4.350673431E0,5.647527330E0
1.053301325E1,-4.490798738E0,-3.122469292E0,-4.642102168E0,7.173994725E0
1.054306325E1,-5.238119384E0,-4.241049832E0,-3.314991206E0,7.510896422E0
1.055311225E1,-5.142120967E0,-5.160814515E0,-8.506260359E-1,7.334778739E0
1.056316225E1,-4.478026958E0,-5.369317455E0,1.658091434E0,7.185510599E0
1.057321125E1,-3.562777202E0,-5.128948944E0,3.759812289E0,7.289422962E0
1.058326125E1,-2.660059199E0,-5.007771832E0,4.730992709E0,7.384848385E0
1.059331125E1,-2.092813645E0,-5.023992593E0,4.123334856E0,6.828049565E0
1.060336025E1,-1.616390846E0,-5.089212436E0,3.366562479E0,6.312412020E0
1.061341025E1,-1.015337715E0,-4.825855597E0,2.861933442E0,5.701794099E0
1.062345925E1,-8.402530754E-1,-4.979629183E0,3.689170908E0,6.254015831E0
1.063350925E1,-7.343727176E-1,-5.267781724E0,3.018930598E0,6.115780370E0
1.064355825E1,-3.028742956E-1,-5.141191260E0,7.076909955E-1,5.198500452E0
1.065360825E1,3.541168816E-2,-4.486815323E0,-3.543130557E-1,4.500922513E0
1.066365825E1,1.909636678E-1,-3.216752136E0,3.502659054E-1,3.241395938E0
1.067370725E1,1.317257819E-1,-1.688008128E0,2.604998893E0,3.106886279E0
1.068375725E1,-1.236162602E-1,-5.636072695E-2,5.619052620E0,5.620694784E0
1.069380625E1,6.767878029E-3,2.119344948E0,7.559320157E0,7.850795504E0
1.070385625E1,-3.932126811E-1,3.889672517E0,6.962305405E0,7.984852225E0
1.071390525E1,-9.635147202E-1,5.172894863E0,6.155499573E0,8.097985976E0
1.072395525E1,-1.297388395E0,6.047840638E0,5.351272362E0,8.178979700E0
1.073400425E1,-1.728232879E0,6.657281308E0,4.538107391E0,8.240182157E0
1.074405425E1,-2.235518890E0,7.232721587E0,3.744272729E0,8.445672533E0
1.075410425E1,-2.646374375E0,7.533711691E0,3.605400480E0,8.761222620E0
1.076415325E1,-3.224704349E0,7.851227195E0,3.564638955E0,9.205820848E0
1.077420325E1,-3.825798410E0,8.323882779E0,3.620986526E0,9.850649797E0
1.078425225E1,-4.101556317E0,8.601902681E0,5.132922127E0,1.082415740E1
1.079430225E1,-4.049998493E0,8.796424343E0,5.418566213E0,1.109686572E1
1.080435125E1,-3.707513039E0,8.967107491E0,4.735201828E0,1.079707396E1
1.081440125E1,-2.953080424E0,8.736103882E0,4.019689450E0,1.005972655E1
1.082445125E1,-2.264127855E0,8.422740485E0,3.471962634E0,9.387404154E0
1.083450025E1,-1.884760503E0,7.994316164E0,3.267369435E0,8.839520129E0
1.084455050E1,-1.613758722E0,7.370560341E0,3.039475667E0,8.134358566E0
1.085459950E1,-1.304909669E0,6.602687024E0,2.639511498E0,7.229473434E0
1.086464950E1,-1.005235189E0,5.673547500E0,2.089468600E0,6.129071549E0
1.087469850E1,-7.066900983E-1,4.498875205E0,1.027108161E0,4.668430162E0
1.088474850E1,-2.472003973E-1,2.853069355E0,-1.681816804E0,3.321087254E0
1.089479850E1,5.031898540E-1,9.145513058E-2,-5.875276440E0,5.897494156E0
1.090484750E1,1.518699806E0,-4.288281886E0,-1.037497552E1,1.132854482E1
1.091489750E1,2.704240175E0,-1.014922972E1,-1.402851700E1,1.752481293E1
1.092494650E1,3.495796762E0,-1.515510823E1,-1.148395610E1,1.933336877E1
1.093499650E1,3.588772461E0,-1.507093171E1,-8.448520274E0,1.764623941E1
1.094504550E1,7.915764669E-1,-9.153203316E0,-7.806274971E0,1.205593850E1
1.095509550E1,-1.563509213E0,-3.462916991E0,-7.140914454E0,8.088820334E0
1.096514550E1,-2.291614738E0,-3.574753761E-2,-5.596144983E0,6.047281593E0
1.097519450E1,-2.373109429E0,2.441344682E0,-2.340760294E0,4.131703156E0
1.098524450E1,-2.272696803E0,4.129156344E0,-8.052551508E-2,4.713975735E0
1.099529350E1,-2.930894042E0,4.650588816E0,-5.826658596E0,8.010497277E0
1.100534350E1,-3.625618690E0,4.014584831E0,-1.399342903E1,1.500260172E1
1.101539250E1,-2.086764116E0,7.634978449E-1,-7.737174915E0,8.049931000E0
1.102544250E1,9.463934150E-2,-3.796556193E0,9.301955897E0,1.004734687E1
1.103549250E1,-1.691924886E0,-9.404920687E0,1.177592863E1,1.516534332E1
1.104554150E1,-2.759126527E0,-1.578043988E1,7.954763258E0,1.788612089E1
1.105559150E1,-8.965139611E-1,-1.095852998E1,1.299959065E1,1.702593532E1
1.106564050E1,-2.918153543E0,-1.935286294E0,1.128300952E1,1.181385868E1
1.107569050E1,-5.731958846E0,5.502142805E0,5.424552008E0,9.620534920E0
1.108573950E1,-4.271294263E0,1.166779607E1,-7.674198648E-1,1.244870889E1
1.109578950E1,-3.816520049E-1,1.358308196E1,8.283899519E-1,1.361366974E1
1.110583950E1,6.598167711E-1,1.003895591E1,7.346239432E0,1.245725603E1
1.111588850E1,-8.283798654E-1,5.008129681E0,9.022120435E0,1.035211250E1
1.112593850E1,-1.873225116E0,1.127012225E0,7.298717941E0,7.619082128E0
1.113598750E1,-1.962755051E0,-2.314849527E0,4.282809769E0,5.249132809E0
1.114603750E1,-1.831056459E0,-5.677780885E0,2.938786906E0,6.650295633E0
1.115608650E1,-2.004271452E0,-7.340182886E0,3.619212188E0,8.425798818E0
1.116613650E1,-1.827430016E0,-6.725493171E0,4.366691294E0,8.224338983E0
1.117618650E1,-1.433749557E0,-5.791817962E0,4.499161134E0,7.472833733E0
1.118623550E1,-1.080744085E0,-5.559032121E0,3.986533399E0,6.925553728E0
1.119628550E1,-2.853613731E-1,-4.931160443E0,2.649659926E0,5.605218296E0
1.120633450E1,8.094429266E-1,-3.785899642E0,1.643736520E0,4.205960497E0
1.121638450E1,1.676142666E0,-2.382913456E0,1.146831874E0,3.130966963E0
1.122643350E1,2.158498781E0,-8.138698536E-1,1.042792439E0,2.531583931E0
1.123648350E1,2.548637873E0,6.524264753E-1,1.449568030E0,3.003741465E0
1.124653350E1,3.161751471E0,1.944051270E0,1.699504924E0,4.082196062E0
1.125658250E1,3.410122481E0,2.953578315E0,1.320135818E0,4.700565793E0
1.126663250E1,3.356174023E0,4.002582836E0,4.515828037E-1,5.242947688E0
1.127668150E1,3.161584826E0,4.708043557E0,-5.379135076E-1,5.696546646E0
1.128673150E1,2.726640566E0,4.796176885E0,-1.028504256E0,5.612103215E0
1.129678150E1,1.657321356E0,4.085891626E0,-1.158716998E0,4.558930745E0
1.130683050E1,8.818478286E-2,3.140798559E0,-1.957013378E0,3.701660911E0
1.131688050E1,-1.269386372E0,2.317131110E0,-2.692445172E0,3.772227372E0
1.132692950E1,-2.148309569E0,1.782021416E0,-2.991999199E0,4.091808102E0
1.133697950E1,-1.857531336E0,1.857413660E0,-2.588240188E0,3.687735814E0
1.134702850E1,-1.264409660E0,1.950557467E0,-1.865454897E0,2.980491267E0
1.135707850E1,-4.793693572E-1,2.092974590E0,-1.203924746E0,2.461660498E0
1.136712850E1,2.714957245E-1,1.926804907E0,-8.295025308E-1,2.115268666E0
1.137717750E1,7.827169119E-1,1.433624427E0,-1.154835178E0,2.000392224E0
1.138722750E1,1.142283691E0,8.980089480E-1,-1.935988837E0,2.420595975E0
1.139727650E1,1.211827550E0,1.716684043E-1,-2.585986086E0,2.860999841E0
1.140732650E1,1.252702657E0,-4.225794446E-1,-2.675999001E0,2.984762635E0
1.141737650E1,1.330101812E0,-9.705430734E-1,-2.581201602E0,3.061654193E0
1.142742550E1,1.422164469E0,-1.693935451E0,-2.889678773E0,3.638985092E0
1.143747550E1,1.684304794E0,-2.506022488E0,-3.657864915E0,4.743100999E0
1.144752450E1,2.466999925E0,-2.985334543E0,-4.389058355E0,5.853387413E0
1.145757450E1,3.484586480E0,-3.281342819E0,-4.337854580E0,6.459608037E0
1.146762350E1,4.436239831E0,-3.545506573E0,-3.273952231E0,6.555120434E0
1.147767350E1,4.985383428E0,-3.767725326E0,-1.932172067E0,6.540878454E0
1.148772350E1,5.262219268E0,-4.029424480E0,-1.558704263E0,6.808580780E0
1.149777250E1,5.369961233E0,-4.451444346E0,-2.125101824E0,7.291632065E0
1.150782250E1,4.987886036E0,-4.566166132E0,-3.204503096E0,7.483162456E0
1.151787150E1,3.651009347E0,-4.714726340E0,-4.219022494E0,7.304701535E0
1.152792150E1,1.954196189E0,-4.924758911E0,-5.215988842E0,7.434962857E0
1.153797050E1,8.048698193E-1,-5.028214867E0,-5.665987051E0,7.618016109E0
1.154802050E1,9.030942714E-1,-5.018999655E0,-4.118630479E0,6.555078476E0
1.155807050E1,2.010493766E0,-5.231833627E0,-1.178460706E0,5.727384911E0
1.156811950E1,3.166782123E0,-5.515124794E0,9.355270225E-1,6.428088465E0
1.157816950E1,4.102844458E0,-6.101256123E0,1.476050362E0,7.499158859E0
1.158821850E1,4.332105598E0,-6.863165864E0,6.968816864E-1,8.145908707E0
1.159826850E1,3.604390959E0,-6.050137424E0,-4.986716008E-1,7.060061643E0
1.160831850E1,2.179093259E0,-4.204011229E0,-1.602130072E0,4.998897740E0
1.161836750E1,-1.122273057E0,-2.541402821E0,-3.403396429E0,4.393328165E0
1.162841750E1,-4.100742969E0,-2.251681471E0,-4.456501018E0,6.461158075E0
1.163846650E1,-5.471549588E0,-2.773205745E0,-4.129662713E0,7.394771066E0
1.164851650E1,-5.726765934E0,-3.651223063E0,-2.596389452E0,7.271073930E0
1.165856550E1,-5.068496336E0,-4.272462829E0,-7.721411260E-1,6.673814175E0
1.166861550E1,-3.990813853E0,-4.268045257E0,1.251619899E0,5.975730742E0
1.167866550E1,-2.942484393E0,-4.167967823E0,3.209503927E0,6.027527323E0
1.168871450E1,-2.160871289E0,-4.280889251E0,3.884752085E0,6.171440373E0
1.169876450E1,-1.571985190E0,-4.850335550E0,3.561537884E0,6.219440850E0
1.170881350E1,-9.315617332E-1,-5.903105679E0,3.037398151E0,6.703749059E0
1.171886350E1,-2.217113610E-1,-6.504843226E0,2.392886467E0,6.934554562E0
1.172891350E1,4.698449738E-2,-6.498529987E0,2.109533905E0,6.832512922E0
1.173896250E1,3.356348562E-1,-5.251507169E0,9.910714781E-1,5.354736313E0
1.174901250E1,3.457299279E-1,-3.369548067E0,2.791650787E-1,3.398722775E0
1.175906150E1,1.289910391E-1,-1.872496553E0,4.813907397E-1,1.937683946E0
1.176911150E1,-1.427179626E-1,-8.322324497E-1,1.787353492E0,1.976768012E0
1.177916050E1,-7.769119424E-1,3.318739271E-1,4.921016693E0,4.993008889E0
1.178921050E1,-8.562200671E-1,2.220633926E0,7.005661340E0,7.398893069E0
1.179926050E1,-7.380145097E-1,3.873358201E0,6.843608097E0,7.898261894E0
1.180930950E1,-7.522729450E-1,4.895120544E0,5.983263988E0,7.767082315E0
1.181935950E1,-1.135632191E0,5.579527781E0,4.846336055E0,7.477149449E0
1.182940850E1,-1.358399413E0,6.201249357E0,3.821093448E0,7.409554487E0
1.183945850E1,-1.642646599E0,6.597795244E0,3.668846278E0,7.725905963E0
1.184950863E1,-1.948008373E0,7.017417752E0,4.225237792E0,8.419710382E0
1.185955763E1,-2.447528697E0,7.257948230E0,4.316269584E0,8.791950429E0
1.186960763E1,-2.950522560E0,7.093292976E0,5.208244790E0,9.281497854E0
1.187965663E1,-3.201096216E0,7.138886640E0,5.899900235E0,9.798956180E0
1.188970662E1,-3.443834895E0,7.117519745E0,5.789332311E0,9.799768094E0
1.189975563E1,-3.399415937E0,6.772982503E0,5.318397562E0,9.258221931E0
1.190980563E1,-3.068586322E0,6.614808303E0,3.901287426E0,8.269942834E0
1.191985563E1,-2.774052130E0,6.655528312E0,3.203080176E0,7.889939477E0
1.192990463E1,-2.335334077E0,6.733113847E0,3.490073215E0,7.935314636E0
1.193995462E1,-1.544538506E0,6.651043498E0,3.873595013E0,7.850268603E0
1.195000363E1,-6.770368212E-1,6.323664910E0,3.302453314E0,7.166122706E0
1.196005362E1,1.360781751E-1,5.845399507E0,1.951300648E0,6.163991149E0
1.197010263E1,8.951183769E-1,5.177610642E0,5.014504901E-1,5.278289635E0
1.198015263E1,1.638572844E0,3.830030333E0,-1.502860723E0,4.428616450E0
1.199020263E1,2.348145327E0,1.465930293E0,-5.090103552E0,5.794125669E0
1.200025163E1,3.381353888E0,-1.963030162E0,-8.614336785E0,9.460118381E0
1.201030162E1,4.357395975E0,-6.028273516E0,-1.172815103E1,1.388799870E1
1.202035063E1,4.354355423E0,-1.008445895E1,-1.133191797E1,1.578192283E1
1.203040063E1,1.485440551E0,-1.360036399E1,-9.334899695E0,1.656251148E1
1.204045063E1,-2.522472753E0,-1.221766706E1,-9.229314768E0,1.551819926E1
1.205049963E1,-4.027221833E0,-6.909736598E0,-8.228443941E0,1.147476646E1
1.206054962E1,-4.229570578E0,-2.368250978E0,-6.362681626E0,7.998849758E0
1.207059863E1,-4.303657724E0,1.244668145E0,-3.349513752E0,5.593738551E0
1.208064863E1,-4.499476006E0,3.834411651E0,-6.756542471E-1,5.950168544E0
1.209069863E1,-5.046392106E0,4.063692672E0,-1.756981300E0,6.713170243E0
1.210074763E1,-5.976076591E0,-5.636505389E-1,-5.988140566E0,8.478739340E0
1.211079762E1,-6.259099955E0,-7.265461902E0,-4.495136788E0,1.059101145E1
1.212084663E1,-6.601657330E0,-9.655922359E0,-4.916315532E-1,1.170728054E1
1.213089662E1,-6.303558674E0,-5.722351871E0,3.630423347E0,9.255276148E0
1.214094563E1,-3.482315129E0,8.277417880E-1,6.607308079E0,7.514532266E0
1.215099563E1,-9.106175184E-1,6.077913453E0,9.893801125E0,1.164721241E1
1.216104563E1,-6.211019909E-1,1.008495713E1,6.883245787E0,1.222584151E1
1.217109463E1,7.704878989E-1,1.298695248E1,1.978199886E0,1.315932601E1
1.218114462E1,2.948877153E0,1.238802569E1,2.869214103E0,1.305340747E1
1.219119363E1,3.181406594E0,7.799798595E0,7.426526381E0,1.122993767E1
1.220124363E1,1.536700314E0,2.010572703E0,8.853458669E0,9.208017206E0
1.221129363E1,-1.166519888E-1,-3.075400960E0,8.183394653E0,8.742976998E0
1.222134263E1,-4.872879490E-1,-7.597260985E0,8.420149584E0,1.135142031E1
1.223139262E1,-6.481626856E-1,-1.229598817E1,7.910397509E0,1.463508896E1
1.224144163E1,4.342510718E-1,-1.355531003E1,8.107124741E0,1.580064794E1
1.225149163E1,2.070032162E0,-9.609484942E0,8.069219581E0,1.271768606E1
1.226154163E1,2.552315187E0,-5.005632920E0,5.372907060E0,7.774239772E0
1.227159063E1,2.352833917E0,-1.637382351E0,1.940881640E0,3.461772659E0
1.228164062E1,1.993600868E0,5.086136216E-1,-2.716113532E-1,2.075308402E0
1.229168963E1,1.561155124E0,1.854695874E0,-1.254602125E0,2.729675549E0
1.230173962E1,8.382992283E-1,2.120797396E0,-8.655633330E-1,2.439206239E0
1.231178863E1,1.538051605E-2,1.607383795E0,-6.548881531E-2,1.608790854E0
1.232183863E1,-1.292960591E0,6.678876829E-1,1.340426241E0,1.978525601E0
1.233188863E1,-2.776499189E0,-3.912582493E-1,2.482383950E0,3.744897975E0
1.234193763E1,-2.704674039E0,-5.260342312E-1,1.965815191E0,3.384730866E0
1.235198762E1,-1.270835312E0,3.217354399E-1,1.083218919E0,1.700558529E0
1.236203663E1,1.945178613E-1,1.241284946E0,2.593281072E-1,1.282917215E0
1.237208663E1,1.068981241E0,1.908010787E0,6.819022894E-2,2.188121561E0
1.238213663E1,1.695192164E0,2.643120984E0,5.264791312E-1,3.183856983E0
1.239218563E1,1.861377488E0,3.464184667E0,3.400962087E-1,3.947273362E0
1.240223562E1,1.652426944E0,3.472100628E0,-7.806746256E-1,3.923703665E0
1.241228463E1,1.263305998E0,3.193142248E0,-2.173989956E0,4.064275063E0
1.242233463E1,6.497350019E-1,2.919280887E0,-3.011577432E0,4.244284992E0
1.243238363E1,-2.411489676E-1,2.442359174E0,-3.356703488E0,4.158212292E0
1.244243363E1,-9.315788363E-1,1.866866854E0,-2.528582801E0,3.278225428E0
1.245248363E1,-9.175177445E-1,1.818620308E0,-1.330185135E0,2.432819584E0
1.246253263E1,-6.251885368E-1,1.945777953E0,-4.166699561E-1,2.085791552E0
1.247258262E1,-3.339735161E-1,1.963683881E0,-4.458738747E-1,2.041175202E0
1.248263163E1,-7.239452317E-2,2.088089241E0,-1.546440752E0,2.599391591E0
1.249268163E1,4.276098043E-2,1.914475468E0,-2.489801728E0,3.141044008E0
1.250273163E1,8.123448998E-2,1.094460191E0,-3.100138483E0,3.288662458E0
1.251278063E1,3.006898490E-1,-3.824926883E-1,-3.516307333E0,3.549807361E0
1.252283062E1,1.132088339E0,-2.073758885E0,-4.086920443E0,4.720701074E0
1.253287963E1,2.569162477E0,-3.746695815E0,-4.815575023E0,6.620278557E0
1.254292963E1,3.891654431E0,-4.947647837E0,-4.812538271E0,7.923680833E0
1.255297963E1,4.797275577E0,-5.447939116E0,-3.927637319E0,8.253497954E0
1.256302863E1,5.701126478E0,-5.104395901E0,-3.138382781E0,8.270861328E0
1.257307862E1,6.375557195E0,-4.368127955E0,-3.398390628E0,8.442590256E0
1.258312763E1,6.275634127E0,-4.152181510E0,-3.939909748E0,8.493943949E0
1.259317762E1,5.335428162E0,-4.627504594E0,-3.398534177E0,7.837769261E0
1.260322663E1,4.279015219E0,-5.267668288E0,-2.454355029E0,7.216797007E0
1.261327663E1,3.291676895E0,-5.610760683E0,-2.152520588E0,6.851942579E0
1.262332663E1,2.508112868E0,-5.348605447E0,-2.793307596E0,6.534583209E0
1.263337563E1,1.956789722E0,-4.894866775E0,-4.081380791E0,6.666814526E0
1.264342562E1,1.948157769E0,-4.676709498E0,-4.254398733E0,6.615651064E0
1.265347463E1,2.728744687E0,-4.670617869E0,-2.389076129E0,5.913408796E0
1.266352463E1,3.334511551E0,-5.203748866E0,-4.151452947E-1,6.194377705E0
1.267357463E1,4.058338961E0,-5.134602617E0,2.344330019E-1,6.548986028E0
1.268362363E1,4.264640424E0,-5.033339367E0,6.606967771E-1,6.630096783E0
1.269367362E1,3.358425201E0,-4.827633151E0,1.503716755E-1,5.882828683E0
1.270372263E1,1.759896137E0,-4.213949157E0,-9.091516945E-1,4.656303116E0
1.271377263E1,-5.680900374E-1,-3.309681349E0,-2.637538063E0,4.270049644E0
1.272382163E1,-2.466356147E0,-2.569234398E0,-3.495078431E0,4.989934997E0
1.273387163E1,-3.457420608E0,-2.648208062E0,-2.941096848E0,5.255170204E0
1.274392162E1,-3.591088543E0,-3.196783310E0,-1.610246007E0,5.070328654E0
1.275397063E1,-3.189929203E0,-3.846732904E0,-1.898906672E-1,5.000906000E0
1.276402062E1,-2.713244011E0,-4.376001815E0,1.006021639E0,5.246252423E0
1.277406963E1,-2.533465810E0,-5.009827128E0,2.178933338E0,6.022006921E0
1.278411963E1,-2.464687936E0,-5.603283264E0,3.238516642E0,6.925276890E0
1.279416963E1,-2.155289391E0,-6.348364719E0,3.964394671E0,7.788673318E0
1.280421863E1,-1.464690537E0,-7.341418988E0,4.498571734E0,8.733779180E0
1.281426862E1,-5.266537437E-1,-7.569477940E0,3.912987120E0,8.537319758E0
1.282431763E1,3.333994657E-2,-6.744686072E0,2.356126192E0,7.144454660E0
1.283436763E1,3.106608135E-1,-4.801459259E0,1.281561152E0,4.979248954E0
1.284441738E1,1.827187648E-1,-3.060720940E0,-2.402691078E-1,3.075569551E0
1.285446637E1,1.029414741E-1,-1.974455622E0,-2.586069994E-1,1.993978317E0
1.286451638E1,-1.959099737E-1,-6.988212079E-1,2.243187514E0,2.357673010E0
1.287456538E1,-5.819921215E-1,1.165881591E0,5.307704759E0,5.465320166E0
1.288461538E1,-4.976550624E-1,3.292305763E0,7.477171454E0,8.185049222E0
1.289466538E1,-5.223949242E-1,5.158013114E0,7.397703116E0,9.033493628E0
1.290471437E1,-9.710538277E-1,6.184012350E0,6.517674941E0,9.036871191E0
1.291476438E1,-1.344835626E0,6.807089311E0,5.184342542E0,8.661550401E0
1.292481338E1,-1.454487585E0,6.916270861E0,4.652518690E0,8.461457730E0
1.293486338E1,-1.712824589E0,7.122133198E0,3.707018656E0,8.209782986E0
1.294491238E1,-2.035918044E0,7.227597672E0,3.668241676E0,8.356980758E0
1.295496237E1,-2.320835614E0,7.653272048E0,4.204008598E0,9.035072733E0
1.296501238E1,-2.458776401E0,7.743799810E0,4.959713566E0,9.518969249E0
1.297506138E1,-2.725470831E0,7.433817274E0,5.356917264E0,9.559623062E0
1.298511138E1,-2.750441950E0,7.278470787E0,5.057456208E0,9.280028622E0
1.299516038E1,-3.020279550E0,7.191263074E0,4.138355476E0,8.829628487E0
1.300521037E1,-3.279108598E0,7.026305519E0,3.491639391E0,8.503709078E0
1.301526038E1,-3.166634481E0,6.977947292E0,3.313003153E0,8.348371831E0
1.302530937E1,-2.689189150E0,6.943496667E0,3.101328391E0,8.066109473E0
1.303535938E1,-1.805833032E0,6.574115775E0,2.957871341E0,7.431623916E0
1.304540838E1,-4.441281885E-1,5.838968740E0,2.505352982E0,6.369269923E0
1.305545838E1,6.381461129E-1,5.028290296E0,8.079483783E-1,5.132612819E0
1.306550838E1,1.324637297E0,4.110280947E0,-1.396307496E0,4.538584367E0
1.307555737E1,1.725518309E0,2.747556349E0,-4.118445999E0,5.242907283E0
1.308560738E1,2.520488208E0,1.213946289E-1,-7.275855328E0,7.701017349E0
1.309565638E1,4.085089973E0,-3.621930267E0,-9.598286355E0,1.104234757E1
1.310570638E1,4.964293106E0,-7.787318298E0,-1.098128500E1,1.434835017E1
1.311575538E1,3.424721224E0,-1.197618290E1,-1.052187278E1,1.630544323E1
1.312580537E1,-1.369358849E0,-1.365422854E1,-1.136913316E1,1.782050194E1
1.313585538E1,-4.898996956E0,-1.039246220E1,-1.022409280E1,1.537971116E1
1.314590438E1,-5.606705639E0,-5.896814659E0,-6.494662639E0,1.041096605E1
1.315595438E1,-5.038663257E0,-1.773634170E0,-3.134761893E0,6.193596508E0
1.316600338E1,-3.469971949E0,1.933271343E0,-2.786894077E-1,3.981948166E0
1.317605338E1,-2.515239455E0,4.812952546E0,8.644517773E-1,5.498928860E0
1.318610338E1,-3.403197331E0,5.526081891E0,-4.605276696E0,7.957883298E0
1.319615237E1,-3.592427263E0,1.405342029E0,-8.602587975E0,9.427886281E0
1.320620238E1,-1.884338042E0,-5.008544834E0,-1.009904483E0,5.445746806E0
1.321625138E1,-4.479108254E-1,-8.312785934E0,8.889337184E0,1.217880740E1
1.322630138E1,6.437272802E-2,-9.715126587E0,7.266845938E0,1.213238964E1
1.323635138E1,4.487803794E-1,-6.064549057E0,1.179644651E1,1.327163552E1
1.324640037E1,-2.107773162E0,1.378552426E0,1.134668102E1,1.162283462E1
1.325645038E1,-4.660146383E0,6.981162091E0,4.641143809E0,9.591340068E0
1.326649938E1,-3.638263586E0,1.122706453E1,-2.567307740E-1,1.180465377E1
1.327654938E1,-3.425879265E-1,1.162103939E1,2.087858276E0,1.181207328E1
1.328659838E1,4.585142393E-1,7.657508356E0,7.737125798E0,1.089544791E1
1.329664837E1,-8.586070468E-1,3.114515909E0,9.389738392E0,9.929985019E0
1.330669838E1,-1.453116120E0,-2.307627046E-1,7.765805222E0,7.903956517E0
1.331674737E1,-1.860145041E0,-3.909396345E0,6.098964014E0,7.479363703E0
1.332679738E1,-2.182732566E0,-7.495545160E0,4.602145804E0,9.062409432E0
1.333684638E1,-1.749815829E0,-8.063724952E0,4.349813890E0,9.327721931E0
1.334689638E1,-9.495588052E-1,-6.502164032E0,4.363800430E0,7.888127358E0
1.335694638E1,-4.078104743E-1,-5.457420377E0,4.052822113E0,6.809927579E0
1.336699537E1,-3.808174610E-2,-4.853829262E0,3.175600601E0,5.800478248E0
1.337704538E1,4.156309790E-1,-3.940822790E0,1.720406527E0,4.320026851E0
1.338709438E1,8.096169544E-1,-2.838965871E0,9.506532577E-1,3.101442962E0
1.339714438E1,1.289877354E0,-1.619092845E0,9.540421578E-1,2.279351151E0
1.340719338E1,2.099933069E0,-5.859143972E-2,1.597949313E0,2.639430594E0
1.341724337E1,2.759010460E0,1.363796977E0,2.065026069E0,3.706266798E0
1.342729338E1,3.145693263E0,2.298817631E0,1.752343288E0,4.272078605E0
1.343734238E1,3.265360039E0,3.226326367E0,1.062186996E0,4.711687514E0
1.344739238E1,3.310796998E0,4.103718032E0,2.401075785E-1,5.278212775E0
1.345744138E1,3.191538065E0,4.637879308E0,-2.927268183E-1,5.637510859E0
1.346749137E1,2.675767451E0,4.509682029E0,-1.903713814E-1,5.247209231E0
1.347754138E1,1.751789557E0,3.782718172E0,5.312546253E-2,4.168998169E0
1.348759037E1,6.299109674E-1,2.967991701E0,-1.065235953E0,3.215663260E0
1.349764038E1,-3.235178174E-1,2.250526646E0,-2.210772743E0,3.171285242E0
1.350768938E1,-1.179242333E0,1.656491636E0,-2.728757551E0,3.403041991E0
1.351773938E1,-1.783118061E0,1.312280669E0,-2.695040166E0,3.487811932E0
1.352778938E1,-1.835805275E0,1.122143249E0,-2.328221524E0,3.170173804E0
1.353783837E1,-1.580553115E0,1.256956653E0,-2.263380873E0,3.033311912E0
1.354788838E1,-1.086002632E0,1.596162989E0,-2.577331622E0,3.220213703E0
1.355793738E1,-7.579659404E-1,1.896974752E0,-3.101866043E0,3.714108039E0
1.356798738E1,-5.840121518E-1,1.753786381E0,-3.440184478E0,3.905343277E0
1.357803638E1,-4.202592695E-1,8.803193665E-1,-3.047813796E0,3.200117026E0
1.358808637E1,-1.314916009E-1,-1.138663387E-1,-2.187584878E0,2.194489276E0
1.359813638E1,6.565772675E-1,-1.169285840E0,-1.619680198E0,2.102780784E0
1.360818538E1,2.038691086E0,-2.470077900E0,-1.746564485E0,3.648017774E0
1.361823538E1,3.706401483E0,-3.978057275E0,-2.921978792E0,6.172544993E0
1.362828438E1,5.204016668E0,-5.095658407E0,-4.538751169E0,8.581828841E0
1.363833437E1,6.092432674E0,-5.431825944E0,-5.086346716E0,9.617348485E0
1.364838438E1,6.274037837E0,-5.237933443E0,-4.279668937E0,9.225782554E0
1.365843337E1,5.874712769E0,-5.124060672E0,-3.378446652E0,8.496007866E0
1.366848338E1,5.055858164E0,-5.233732803E0,-2.864954406E0,7.820589784E0
1.367853238E1,4.241243667E0,-5.437543936E0,-2.849486182E0,7.461541624E0
1.368858238E1,3.700132975E0,-5.618821070E0,-3.372156217E0,7.525528009E0
1.369863238E1,3.241089417E0,-5.434384686E0,-4.647526337E0,7.850904316E0
1.370868137E1,3.086011902E0,-5.311972057E0,-5.415291188E0,8.189376975E0
1.371873138E1,3.536397488E0,-5.584323083E0,-3.739935557E0,7.594596069E0
1.372878038E1,4.076754474E0,-7.074269645E0,-5.862207913E-1,8.185894750E0
1.373883038E1,4.452258278E0,-7.869088685E0,9.710023722E-1,9.093294569E0
1.374888038E1,4.778633776E0,-7.233788704E0,1.069792250E0,8.735416146E0
1.375892937E1,3.872835752E0,-5.628395886E0,3.966774487E-1,6.843613812E0
1.376897938E1,5.838947690E-1,-3.237912624E0,-1.654841552E0,3.682867338E0
1.377902838E1,-2.310366174E0,-1.765121793E0,-3.653223980E0,4.668992638E0
1.378907838E1,-4.078783458E0,-1.784473153E0,-4.499924780E0,6.330098100E0
1.379912738E1,-4.968566251E0,-2.495153099E0,-4.229600984E0,6.985840254E0
1.380917738E1,-4.976111498E0,-3.251978102E0,-2.705284488E0,6.531126348E0
1.381922738E1,-4.454020921E0,-3.812882788E0,-7.597310686E-1,5.912154330E0
1.382927637E1,-3.771778616E0,-4.212259896E0,1.096725987E0,5.759536028E0
1.383932638E1,-3.230338141E0,-4.949021348E0,3.164866283E0,6.704049179E0
1.384937213E1,-2.912255457E0,-6.180457243E0,4.692494642E0,8.288473294E0
1.385942213E1,-2.445174901E0,-7.533787705E0,4.794784663E0,9.258876683E0
1.386947212E1,-1.651318312E0,-8.563076000E0,3.503534675E0,9.398291225E0
1.387952113E1,-7.677644120E-1,-8.306406037E0,2.224715721E0,8.633377293E0
1.388957113E1,-3.356637999E-1,-6.992760043E0,1.384847538E0,7.136467327E0
1.389962013E1,1.130732370E-1,-5.071097762E0,2.285023172E-1,5.077502474E0
1.390967013E1,1.741903815E-1,-3.629597721E0,-1.912435667E-1,3.638804200E0
1.391972012E1,-8.057459515E-2,-2.914107855E0,4.088538368E-1,2.943752421E0
1.392976913E1,-5.543604461E-1,-2.426336634E0,2.309984790E0,3.395652322E0
1.393981913E1,-8.340278372E-1,-1.199195518E0,6.272137492E0,6.439983000E0
1.394986813E1,-7.228167191E-1,1.042726951E0,7.973239290E0,8.073554873E0
1.395991813E1,-1.100873125E0,2.859602450E0,7.741336963E0,8.325715932E0
1.396996713E1,-1.366503069E0,4.029439682E0,7.729108096E0,8.822858197E0
1.398001713E1,-1.712548015E0,5.081871257E0,6.555314637E0,8.469379326E0
1.399006712E1,-2.194270877E0,5.880769899E0,4.805183351E0,7.904939363E0
1.400011613E1,-2.376653427E0,6.378163299E0,4.660936342E0,8.249471265E0
1.401016613E1,-2.785673178E0,6.928669297E0,4.427098294E0,8.681338180E0
1.402021513E1,-3.307207685E0,7.721603780E0,4.118159193E0,9.355213666E0
1.403026513E1,-3.537644407E0,8.430073478E0,4.842928882E0,1.034577339E1
1.404031512E1,-3.911839604E0,8.882165574E0,5.071650324E0,1.095066169E1
1.405036413E1,-3.783810432E0,9.199430818E0,4.703320761E0,1.100308934E1
1.406041413E1,-3.092417527E0,9.001712483E0,4.442120960E0,1.050363330E1
1.407046313E1,-2.365425603E0,8.561537012E0,4.302987633E0,9.869693859E0
1.408051313E1,-1.872450652E0,8.192661905E0,4.339851989E0,9.458334728E0
1.409056312E1,-1.215932296E0,7.797543908E0,3.656272718E0,8.697615336E0
1.410061213E1,-1.967962289E-1,7.306864867E0,1.657098577E0,7.494996907E0
1.411066213E1,7.439693141E-1,6.542780546E0,-1.168060264E0,6.687737464E0
1.412071113E1,1.571133105E0,5.442845022E0,-4.246058557E0,7.079691691E0
1.413076113E1,2.295595230E0,3.965410917E0,-6.812847065E0,8.210306104E0
1.414081013E1,2.899210027E0,2.082522107E0,-8.386009446E0,9.114135808E0
1.415086013E1,3.054938629E0,-3.315961844E-1,-9.935525687E0,1.039986907E1
1.416091012E1,2.239241959E0,-3.449769527E0,-9.277902791E0,1.014862525E1
1.417095913E1,4.571464294E-1,-6.747962852E0,-6.413115031E0,9.320516611E0
1.418100913E1,-1.130750497E0,-9.118146919E0,-3.260854175E0,9.749480492E0
1.419105813E1,-1.164845026E0,-8.919697682E0,-1.524819356E0,9.123757162E0
1.420110813E1,-3.814994656E-1,-6.369497725E0,-1.129650489E0,6.480135287E0
1.421115812E1,2.035985872E-2,-3.308215452E0,-1.291714257E0,3.551510907E0
1.422120713E1,-6.843231829E-1,-4.208708882E-1,-1.723680237E0,1.901710830E0
1.423125713E1,-1.521677063E0,2.734911745E0,-1.386411669E0,3.423065972E0
1.424130613E1,-2.429980326E0,5.880617287E0,-4.135183654E0,7.588557697E0
1.425135613E1,-2.947173859E0,7.220275204E0,-1.058542032E1,1.314797821E1
1.426140612E1,-1.989199668E0,5.198433162E0,-1.121046311E1,1.251619374E1
1.427145513E1,-1.665015853E0,1.438260099E0,5.415957770E0,5.845807769E0
1.428150512E1,-3.689134655E0,-3.585855870E0,1.408604074E1,1.499615353E1
1.429155413E1,-9.281985902E0,-1.612421406E1,-2.160931515E0,1.873006050E1
1.430160413E1,-6.949825693E0,-2.166492100E1,1.164223029E0,2.278210470E1
1.431165413E1,-5.041803796E0,-7.788744434E0,1.088220744E1,1.430058615E1
1.432170313E1,-4.456815890E0,3.876209888E0,8.396050869E0,1.026556775E1
1.433175312E1,-7.756512827E-1,1.041298593E1,1.361188534E0,1.053018258E1
1.434180213E1,3.088349327E0,1.258069027E1,3.148741416E0,1.333140059E1
1.435185213E1,3.508430256E0,1.071094600E1,7.773810060E0,1.369180667E1
1.436190213E1,1.910987604E0,6.695219212E0,8.328772221E0,1.085570268E1
1.437195113E1,3.738622711E-1,1.950981975E0,6.821675776E0,7.105023860E0
1.438200112E1,-2.592017343E-1,-2.296272923E0,5.175216208E0,5.667708326E0
1.439205013E1,-1.349114180E-1,-6.376863463E0,4.970491154E0,8.086307626E0
1.440210013E1,-4.309114346E-1,-8.865651868E0,5.704577504E0,1.055119293E1
1.441214913E1,-6.685986312E-1,-8.521317524E0,6.380417401E0,1.066628345E1
1.442219913E1,-6.716817219E-1,-6.500758946E0,6.389622087E0,9.139928535E0
1.443224912E1,-6.707804467E-1,-4.671279774E0,4.500471495E0,6.521122971E0
1.444229813E1,-8.213054654E-1,-3.575974075E0,2.226595162E0,4.291836352E0
1.445234812E1,-7.299509069E-1,-2.251637617E0,2.005524802E-1,2.375483442E0
1.446239713E1,-4.091930484E-1,-9.141653895E-1,-1.237138685E0,1.591744149E0
1.447244713E1,-6.357239038E-2,-1.584034109E-1,-1.514550476E0,1.524137866E0
1.448249713E1,3.231583598E-1,7.131848931E-1,-8.843773341E-1,1.181180463E0
1.449254613E1,6.700070793E-1,1.587339540E0,5.921946723E-2,1.723967299E0
1.450259612E1,9.401162097E-1,2.316907747E0,1.285225017E0,2.811349025E0
1.451264513E1,1.187718091E0,2.979506038E0,2.058567234E0,3.811276631E0
1.452269513E1,1.660084312E0,3.474858175E0,2.016724559E0,4.347148169E0
1.453274513E1,2.254758861E0,3.631674652E0,1.317857743E0,4.473225606E0
1.454279413E1,2.718823131E0,3.738717874E0,5.444143689E-1,4.654717775E0
1.455284412E1,2.934961950E0,3.591582633E0,3.552580389E-1,4.651846486E0
1.456289313E1,2.983641189E0,3.220650474E0,-2.463977207E-1,4.397205483E0
1.457294313E1,2.708325625E0,2.662386391E0,-2.062419234E0,4.321678156E0
1.458299313E1,2.380174474E0,2.011398915E0,-3.582190835E0,4.747951906E0
1.459304213E1,1.674929661E0,1.426330610E0,-4.469309928E0,4.981419438E0
1.460309212E1,8.612951580E-1,8.825021321E-1,-4.284578844E0,4.458503699E0
1.461314113E1,4.082046497E-1,5.398512018E-1,-3.163608547E0,3.235195418E0
1.462319112E1,1.958438636E-1,5.673974347E-1,-1.749198363E0,1.849321384E0
1.463324113E1,4.189997792E-2,8.908683282E-1,-8.143165809E-1,1.207689314E0
1.464329013E1,-6.672871739E-2,1.401231437E0,-6.783927906E-1,1.558242292E0
1.465334013E1,-3.161209434E-2,1.907475182E0,-1.186300946E0,2.246501909E0
1.466338913E1,1.051925790E-1,1.528492577E0,-1.850813323E0,2.402678712E0
1.467343912E1,3.399103403E-1,2.778971100E-1,-2.575333044E0,2.612490408E0
1.468348913E1,6.817612253E-1,-1.513802032E0,-3.091439580E0,3.509044548E0
1.469353813E1,1.041945178E0,-3.258742746E0,-3.738165897E0,5.067439029E0
1.470358813E1,2.005197066E0,-4.404978862E0,-4.361873188E0,6.515411864E0
1.471363713E1,3.571052766E0,-4.929350730E0,-4.508568134E0,7.574833536E0
1.472368712E1,5.149420631E0,-5.006488953E0,-4.048983124E0,8.244739462E0
1.473373613E1,6.232308598E0,-4.678936118E0,-3.402071450E0,8.503423064E0
1.474378613E1,6.677330825E0,-4.463210113E0,-3.035319466E0,8.586044242E0
1.475383613E1,6.531623474E0,-4.393191460E0,-3.010519378E0,8.427660608E0
1.476388513E1,5.873111801E0,-4.645844970E0,-2.838030609E0,8.008229233E0
1.477393513E1,4.634378288E0,-4.879025499E0,-2.649403818E0,7.231990910E0
1.478398413E1,2.922616138E0,-4.857966751E0,-3.080251518E0,6.452090782E0
1.479403412E1,1.701692660E0,-4.612088994E0,-3.815472228E0,6.222937499E0
1.480408413E1,1.574424210E0,-4.129431748E0,-3.134822997E0,5.418314625E0
1.481413313E1,1.871500772E0,-4.829912395E0,-1.176206020E0,5.311688008E0
1.482418313E1,2.541946320E0,-5.952303566E0,1.009893081E-1,6.473145115E0
1.483423213E1,3.180926538E0,-6.404794443E0,5.470748520E-1,7.172097070E0
1.484428212E1,2.913677792E0,-5.725580703E0,2.537937176E-1,6.429323753E0
1.485433242E1,1.775219935E0,-4.284763032E0,-6.445053984E-1,4.682519328E0
1.486438142E1,-5.901945591E-2,-3.042263035E0,-1.860196496E0,3.566395754E0
1.487443142E1,-1.426451063E0,-2.798181542E0,-2.412731771E0,3.960537486E0
1.488448042E1,-2.282890693E0,-3.425726361E0,-2.202779599E0,4.668985861E0
1.489453042E1,-2.477141629E0,-3.990861508E0,-1.431949784E0,4.910568847E0
1.490458042E1,-2.367001136E0,-4.325180156E0,-8.812315321E-1,5.008637217E0
1.491462942E1,-2.292368445E0,-4.626998225E0,-2.602888048E-1,5.170281996E0
1.492467942E1,-2.437310688E0,-5.336074864E0,8.423709369E-1,5.926530785E0
1.493472842E1,-2.704953243E0,-6.083364812E0,1.802652147E0,6.897365747E0
1.494477842E1,-2.501583867E0,-6.418774551E0,2.669964967E0,7.388321968E0
1.495482842E1,-1.904965557E0,-6.581288554E0,3.793688718E0,7.831623516E0
1.496487742E1,-1.212923026E0,-6.212951390E0,4.655294656E0,7.857716944E0
1.497492742E1,-6.754275944E-1,-5.366004422E0,3.763057494E0,6.588687851E0
1.498497642E1,-3.285862570E-1,-3.947123750E0,2.267737341E0,4.564031932E0
1.499502642E1,-2.996267521E-1,-2.403358245E0,1.265386730E0,2.732601439E0
1.500507642E1,-2.219222993E-1,-1.653780867E0,5.619033909E-1,1.760674894E0
1.501512542E1,-4.203967521E-1,-9.653928459E-1,1.416096082E0,1.764665660E0
1.502517542E1,-8.274862647E-1,2.159873754E-1,3.916054862E0,4.008350003E0
1.503522442E1,-6.245250240E-1,1.985103402E0,6.432870433E0,6.761101170E0
1.504527442E1,-7.260663092E-1,3.912506479E0,6.744129417E0,7.830591346E0
1.505532442E1,-8.277298012E-1,5.284487804E0,6.140092160E0,8.143198371E0
1.506537342E1,-1.150538790E0,5.989495366E0,5.297598431E0,8.078511211E0
1.507542342E1,-1.486469515E0,6.439095379E0,4.341241872E0,7.906827551E0
1.508547242E1,-1.818602766E0,6.817085127E0,3.497158871E0,7.874648298E0
1.509552242E1,-2.041959095E0,7.055139309E0,3.539392140E0,8.153029151E0
1.510557242E1,-2.576866769E0,7.115576130E0,3.884037555E0,8.506316109E0
1.511562142E1,-2.863918279E0,7.490844584E0,4.545500610E0,9.218262107E0
1.512567142E1,-3.056054570E0,7.296314735E0,5.520437574E0,9.646289922E0
1.513572042E1,-3.254173439E0,7.091537057E0,5.603994870E0,9.606471835E0
1.514577042E1,-3.277369343E0,7.027283174E0,4.807408217E0,9.123323538E0
1.515582042E1,-2.890243321E0,7.066498695E0,3.853999239E0,8.552322515E0
1.516586942E1,-2.320204407E0,7.135327440E0,3.280095315E0,8.188728317E0
1.517591942E1,-1.694844985E0,7.120067376E0,3.255413049E0,8.010341634E0
1.518596842E1,-1.008894084E0,6.949875394E0,3.340411976E0,7.776695149E0
1.519601842E1,-4.584240095E-1,6.598422650E0,2.842598746E0,7.199284803E0
1.520606842E1,5.710973701E-2,6.219937059E0,1.435258139E0,6.383638810E0
1.521611742E1,6.281540984E-1,5.745968190E0,-3.413636658E-1,5.790272633E0
1.522616742E1,1.227910609E0,4.550491501E0,-3.017986565E0,5.596693691E0
1.523621642E1,1.921063234E0,2.121382703E0,-7.342229412E0,7.880297028E0
1.524626642E1,2.657669734E0,-1.575677853E0,-1.140429714E1,1.181541207E1
1.525631642E1,2.719460770E0,-6.081899500E0,-1.302656736E1,1.463135078E1
1.526636542E1,1.158383414E0,-1.104798302E1,-9.918547711E0,1.489219157E1
1.527641542E1,-1.849363652E0,-1.394007202E1,-8.541647708E0,1.645313038E1
1.528646442E1,-3.758519178E0,-1.114169284E1,-8.350610987E0,1.442208340E1
1.529651442E1,-3.273574208E0,-5.868422334E0,-6.045236873E0,9.038780761E0
1.530656442E1,-1.926959420E0,-1.755613636E0,-2.583430853E0,3.670077222E0
1.531661342E1,-1.085479233E0,1.061574866E0,1.323006801E0,2.013840450E0
1.532666342E1,-2.125857138E0,2.502711795E0,9.046031454E-1,3.406044884E0
1.533671242E1,-5.455796020E0,9.485101801E-1,-7.577162350E0,9.385029092E0
1.534676242E1,-7.533991188E0,-5.296917230E0,-1.283550375E1,1.579773755E1
1.535681242E1,-2.617968894E0,-9.795572580E0,-2.327090673E0,1.040299737E1
1.536686142E1,1.178273522E0,-8.036341857E0,1.172078588E1,1.426001194E1
1.537691142E1,1.522915357E-1,-5.324297403E0,1.308707669E1,1.412950501E1
1.538696042E1,-1.345413624E0,-1.076574728E0,1.453941279E1,1.464116373E1
1.539701042E1,-3.910050648E0,4.200182472E0,8.774235914E0,1.048414254E1
1.540706042E1,-4.740460521E0,9.238753928E0,4.241777810E-1,1.039261598E1
1.541710942E1,-1.809494412E0,1.306244354E1,-2.808332893E-1,1.319016939E1
1.542715942E1,1.365486092E0,1.169362673E1,4.940527682E0,1.276770426E1
1.543720842E1,1.154404530E0,6.825379987E0,9.140959246E0,1.146628090E1
1.544725842E1,-4.081971579E-1,2.138315654E0,9.296267726E0,9.547754311E0
1.545730842E1,-8.741248262E-1,-1.646600486E0,7.051634488E0,7.293897197E0
1.546735742E1,-1.161496764E0,-5.557642822E0,5.134174601E0,7.654816608E0
1.547740742E1,-1.558672981E0,-9.326329431E0,4.464556142E0,1.045667938E1
1.548745642E1,-1.918259202E0,-1.127966608E1,6.001020813E0,1.291986207E1
1.549750642E1,-2.270619434E0,-1.144076038E1,7.181706970E0,1.369757736E1
1.550755642E1,-2.126879085E0,-9.847155547E0,5.543100797E0,1.149852397E1
1.551760542E1,-1.011569770E0,-6.706516033E0,2.796853055E0,7.336417226E0
1.552765542E1,-4.023816269E-2,-3.490342771E0,6.734742589E-1,3.554951385E0
1.553770442E1,7.001166585E-1,-1.178872935E0,-1.850760698E-1,1.383530948E0
1.554775442E1,1.290117675E0,6.303672695E-1,-6.234500134E-1,1.565393378E0
1.555780442E1,1.718252267E0,2.217022685E0,-1.465500084E-1,2.808746579E0
1.556785342E1,2.178798852E0,3.482662454E0,5.147584605E-1,4.140178556E0
1.557790342E1,2.406098251E0,4.199567345E0,9.636433589E-1,4.935005897E0
1.558795242E1,2.472921985E0,4.612612905E0,1.040643588E0,5.336148427E0
1.559800242E1,2.734678441E0,4.577644216E0,1.222517722E0,5.470634546E0
1.560805242E1,2.740012271E0,4.018247527E0,1.245949270E0,5.020594588E0
1.561810142E1,2.547418144E0,3.687882181E0,7.800203222E-1,4.549532491E0
1.562815142E1,2.241852887E0,3.320077114E0,-7.274118997E-2,4.006757753E0
1.563820042E1,1.724676018E0,2.700623673E0,-1.584587256E0,3.574743677E0
1.564825042E1,9.446257286E-1,2.195917161E0,-2.899203887E0,3.757625995E0
1.565830042E1,-1.396980219E-2,1.709412446E0,-2.802169928E0,3.282444572E0
1.566834942E1,-5.495717593E-1,1.646503422E0,-2.171775030E0,2.780217513E0
1.567839942E1,-7.080172701E-1,1.584045219E0,-1.683124095E0,2.417311405E0
1.568844842E1,-6.734206107E-1,1.615976864E0,-1.843304037E0,2.542173541E0
1.569849842E1,-7.217607120E-1,1.632451394E0,-2.498004202E0,3.070156522E0
1.570854842E1,-5.554157589E-1,1.869532599E0,-3.225744861E0,3.769491838E0
1.571859742E1,-3.996449107E-1,1.402547060E0,-3.287712191E0,3.596652021E0
1.572864742E1,-1.829061681E-1,8.051656884E-1,-2.689548461E0,2.813435156E0
1.573869642E1,3.776080705E-1,1.327177620E-1,-2.065510511E0,2.103933347E0
1.574874642E1,1.380196371E0,-8.892989355E-1,-2.192362346E0,2.739023051E0
1.575879642E1,2.843544534E0,-2.123657854E0,-2.953799340E0,4.617423387E0
1.576884542E1,3.980784709E0,-3.471059824E0,-3.601843327E0,6.392822424E0
1.577889542E1,4.574886670E0,-4.371818717E0,-4.038727692E0,7.506910703E0
1.578894442E1,5.151282384E0,-4.682349722E0,-4.854271896E0,8.486699286E0
1.579899442E1,5.482609012E0,-4.553858328E0,-5.180360588E0,8.810945640E0
1.580904442E1,5.200659197E0,-4.383355858E0,-4.194090843E0,7.990685995E0
1.581909342E1,4.353209369E0,-4.454239315E0,-2.705571002E0,6.790492922E0
1.582914342E1,3.511968699E0,-4.750780857E0,-1.853050468E0,6.191739572E0
1.583919242E1,2.958628263E0,-5.066293105E0,-2.330337632E0,6.312787063E0
1.584924517E1,2.403846780E0,-5.405971311E0,-3.477067253E0,6.862434104E0
1.585929517E1,1.916594792E0,-5.753503497E0,-3.892466902E0,7.206069432E0
1.586934417E1,2.273549766E0,-6.534670458E0,-2.545613986E0,7.372319655E0
1.587939417E1,3.091830759E0,-7.239743509E0,-1.079760583E0,7.946017017E0
1.588944317E1,3.928859972E0,-6.919941743E0,-8.373461321E-1,8.001417559E0
1.589949317E1,4.670955546E0,-5.831394841E0,-1.427132848E-1,7.472841400E0
1.590954317E1,4.213955589E0,-5.058670090E0,3.105397761E-1,6.591206243E0
1.591959217E1,1.994129456E0,-4.501676606E0,-1.606134830E0,5.178929778E0
1.592964217E1,-5.417304969E-1,-3.377417834E0,-4.012106781E0,5.272326240E0
1.593969117E1,-1.524283459E0,-2.672842382E0,-3.843184229E0,4.923168845E0
1.594974117E1,-1.718455457E0,-2.478444096E0,-2.501898447E0,3.918580117E0
1.595979117E1,-1.689268496E0,-2.839713145E0,-1.341635884E0,3.566172408E0
1.596984017E1,-1.405729407E0,-3.475636439E0,-6.832237601E-1,3.810894715E0
1.597989017E1,-1.185308673E0,-3.874407191E0,-1.959214854E-1,4.056399014E0
1.598993917E1,-1.176144040E0,-4.234750042E0,5.481051314E-1,4.429090421E0
1.599998917E1,-1.402405996E0,-4.923717522E0,1.577114514E0,5.356960613E0
1.601003917E1,-1.878206505E0,-6.001861643E0,2.593707919E0,6.802743830E0
1.602008817E1,-1.946461785E0,-7.133939896E0,3.656958597E0,8.249555024E0
1.603013817E1,-1.500595219E0,-7.920904956E0,4.945527052E0,9.457841146E0
1.604018717E1,-7.591443005E-1,-8.017477570E0,4.799923196E0,9.375260494E0
1.605023717E1,-1.531246177E-1,-7.037445050E0,3.771811945E0,7.985965523E0
1.606028717E1,2.360652156E-1,-4.797410063E0,2.730191288E0,5.524926657E0
1.607033617E1,3.295712936E-1,-2.821637063E0,9.489014319E-1,2.995107157E0
1.608038617E1,2.087918283E-1,-1.740000401E0,4.698500901E-2,1.753112379E0
1.609043517E1,-8.122249405E-2,-6.532760757E-1,2.510290371E0,2.595173303E0
1.610048517E1,3.570508683E-1,1.340587040E0,5.990879402E0,6.149414195E0
1.611053517E1,5.133115670E-1,3.570199950E0,6.533042593E0,7.462604235E0
1.612058417E1,-1.643938833E-1,5.244798074E0,5.977761759E0,7.954154124E0
1.613063417E1,-9.734538174E-1,6.226002960E0,4.865570471E0,7.961438388E0
1.614068317E1,-1.677389585E0,6.790970877E0,3.833991529E0,7.976867325E0
1.615073317E1,-2.434785568E0,7.107499371E0,3.461708372E0,8.272131099E0
1.616078317E1,-3.109484088E0,7.114314886E0,3.587193128E0,8.552796158E0
1.617083217E1,-3.757916330E0,7.244976182E0,3.513196906E0,8.885615765E0
1.618088217E1,-4.270456064E0,7.255242139E0,4.376177816E0,9.488217207E0
1.619093117E1,-4.263361053E0,7.221304314E0,6.193997641E0,1.042540600E1
1.620098117E1,-3.860682899E0,7.322130777E0,6.693169178E0,1.064504510E1
1.621103117E1,-3.229525671E0,7.069952061E0,6.836831759E0,1.035163401E1
1.622108017E1,-2.650926433E0,6.524751241E0,6.298878563E0,9.448579833E0
1.623113017E1,-2.495359506E0,6.210899602E0,4.382596305E0,8.000577686E0
1.624117917E1,-2.496840606E0,6.016546925E0,3.708741539E0,7.495853101E0
1.625122917E1,-2.253756356E0,5.869321636E0,4.016731052E0,7.460729356E0
1.626127917E1,-1.724621639E0,5.831279651E0,3.950869476E0,7.251724745E0
1.627132817E1,-1.120148764E0,5.914030032E0,3.052859651E0,6.749106349E0
1.628137817E1,-4.495724944E-1,6.049315891E0,1.625275983E0,6.279957022E0
1.629142717E1,3.334096983E-1,5.787003365E0,-2.665307075E-1,5.802724238E0
1.630147717E1,1.227584919E0,4.673031600E0,-2.826091472E0,5.597408514E0
1.631152717E1,2.167475134E0,2.531682410E0,-6.441661137E0,7.252748616E0
1.632157617E1,3.041326018E0,-1.151047790E0,-1.039668623E1,1.089337687E1
1.633162617E1,2.954570880E0,-6.450184039E0,-1.343851072E1,1.519631316E1
1.634167617E1,1.607344911E0,-1.318218516E1,-1.075937264E1,1.709145000E1
1.635172517E1,-1.034690099E0,-1.738273601E1,-8.455525823E0,1.935784109E1
1.636177517E1,-3.143518683E0,-1.313672657E1,-8.636386635E0,1.603254405E1
1.637182417E1,-2.497361008E0,-5.999732087E0,-6.700931942E0,9.334671178E0
1.638187417E1,-1.338387171E0,-7.211271662E-1,-4.746096652E0,4.983647062E0
1.639192317E1,-5.423782953E-1,3.285296121E0,-2.413194139E0,4.112280483E0
1.640197317E1,-1.154270702E0,5.441634064E0,-4.703737083E-1,5.582559768E0
1.641202317E1,-4.427087769E0,5.123882917E0,-3.539273441E0,7.640663502E0
1.642207217E1,-7.094409794E0,1.251553826E0,-5.647944882E0,9.154032920E0
1.643212217E1,-4.066879697E0,-5.926327896E0,-4.074679590E0,8.262196231E0
1.644217217E1,-5.062131203E-1,-1.225357247E1,-8.438426811E-1,1.229302080E1
1.645222117E1,9.274326488E-1,-1.276151542E1,9.335939915E0,1.583907135E1
1.646227117E1,-5.653465238E-1,-6.136735858E0,1.534382360E1,1.653517664E1
1.647232017E1,-2.510987359E0,1.530337958E0,1.347656089E1,1.379364656E1
1.648237017E1,-3.464191099E0,7.501045636E0,8.731323783E0,1.202091180E1
1.649242017E1,-2.768298469E0,1.322370390E1,9.937255293E-2,1.351072523E1
1.650246917E1,6.977947292E-1,1.513444534E1,-1.968055260E0,1.527781380E1
1.651251917E1,3.115650854E0,1.051614251E1,5.309546632E0,1.218555780E1
1.652256817E1,1.457334886E0,4.614909691E0,9.126700226E0,1.033043433E1
1.653261817E1,2.369441252E-1,2.750998020E-2,8.588088049E0,8.591400099E0
1.654266817E1,1.305660049E-1,-3.797145592E0,7.030605562E0,7.991544074E0
1.655271717E1,-9.211001873E-2,-8.055527156E0,4.785371815E0,9.370153970E0
1.656276717E1,-7.476363223E-2,-1.054919331E1,4.851504993E0,1.161155329E1
1.657281617E1,4.152350129E-1,-1.000828610E1,5.501989024E0,1.142847733E1
1.658286617E1,9.248660865E-1,-7.848909359E0,4.657659270E0,9.173578651E0
1.659291617E1,9.568775457E-1,-5.075736358E0,3.158353654E0,6.054247436E0
1.660296517E1,7.651669326E-1,-2.534596077E0,1.345354275E0,2.969787170E0
1.661301517E1,1.847726724E-1,-9.656694192E-1,-1.673799102E-1,9.973336462E-1
1.662306417E1,-3.004495284E-1,-3.874090272E-1,-4.784390652E-1,6.850252642E-1
1.663311417E1,-2.999188936E-1,2.427360481E-1,1.847837090E-2,3.862817391E-1
1.664316417E1,8.931738853E-2,1.288935075E0,8.150106454E-1,1.527603868E0
1.665321317E1,4.196864616E-1,2.182578492E0,1.614474714E0,2.747055551E0
1.666326317E1,5.707611186E-1,2.956824689E0,1.788908851E0,3.502681169E0
1.667331217E1,7.393244322E-1,3.581997877E0,1.095029052E0,3.817904927E0
1.668336217E1,9.084978296E-1,3.858962941E0,3.912827345E-1,3.983725074E0
